{
  "resourceType": "Bundle",
  "type": "transaction",
  "entry": [
    {
      "fullUrl": "urn:uuid:4ec8e3e7-cb35-40e7-a0f7-e6ce3097b348",
      "resource": {
        "resourceType": "Location",
        "id": "4ec8e3e7-cb35-40e7-a0f7-e6ce3097b348",
        "identifier": [
          {
            "system": "https://fhir.healthcare.co/identifiers/location",
            "value": "999888QQQ77"
          }
        ],
        "name": "OR 1",
        "description": "Operating Room 1 | Hospital"
      },
      "request": {
        "method": "PUT",
        "url": "Location/4ec8e3e7-cb35-40e7-a0f7-e6ce3097b348"
      }
    },
    {
      "fullUrl": "urn:uuid:24a30cf2-f857-4a38-b54a-48541460df0a",
      "resource": {
        "resourceType": "Practitioner",
        "id": "24a30cf2-f857-4a38-b54a-48541460df0a",
        "meta": {
          "versionId": "4",
          "lastUpdated": "2024-07-03T02:00:20.101+00:00"
        },
        "identifier": [
          {
            "type": {
              "coding": [
                {
                  "system": "http://loinc.org",
                  "code": "89058-1"
                }
              ],
              "text": "Identifying email"
            },
            "system": "http://fhir.healthcare.com/identifier/practitioner-email",
            "value": "test1@nhospital1.onmicrosoft.com"
          },
          {
            "system": "http://fhir.healthcare.com/identifier/practitioner",
            "value": "25379481"
          }
        ],
        "name": [
          {
            "family": "Furrer",
            "given": [
              "Claudia"
            ],
            "suffix": [
              "R.N."
            ]
          }
        ],
        "telecom": [
          {
            "system": "email",
            "value": "test1@nhospital1.onmicrosoft.com"
          }
        ]
      },
      "request": {
        "method": "PUT",
        "url": "Practitioner/24a30cf2-f857-4a38-b54a-48541460df0a"
      }
    },
    {
      "fullUrl": "urn:uuid:787887f7-c446-489a-9abd-8a1ff8edf636",
      "resource": {
        "resourceType": "Practitioner",
        "id": "787887f7-c446-489a-9abd-8a1ff8edf636",
        "identifier": [
          {
            "type": {
              "coding": [
                {
                  "system": "http://loinc.org",
                  "code": "89058-2"
                }
              ],
              "text": "Identifying email"
            },
            "system": "http://fhir.healthcare.com/identifier/practitioner-email",
            "value": "test2@nhospital1.onmicrosoft.com"
          },
          {
            "system": "http://fhir.healthcare.com/identifier/practitioner",
            "value": "25379482"
          }
        ],
        "name": [
          {
            "family": "Jones",
            "given": [
              "Alice"
            ],
            "suffix": [
              "R.N."
            ]
          }
        ],
        "telecom": [
          {
            "system": "email",
            "value": "Hafu3581861"
          }
        ]
      },
      "request": {
        "method": "PUT",
        "url": "Practitioner/787887f7-c446-489a-9abd-8a1ff8edf636"
      }
    },
    {
      "fullUrl": "urn:uuid:ff6029f8-71de-489f-804d-494a7ac66d50",
      "resource": {
        "resourceType": "Patient",
        "id": "ff6029f8-71de-489f-804d-494a7ac66d50",
        "identifier": [
          {
            "system": "http://fhir.healthcare.com/identifier/patient",
            "value": "{PATIENT-ID}"
          }
        ],
        "name": [
          {
            "family": "{PATIENT-SURNAME}",
            "given": [
              "{PATIENT-FIRSTNAME}"
            ]
          }
        ],
        "telecom": [
          {
            "value": "896589658",
            "use": "work"
          }
        ],
        "gender": "male",
        "birthDate": "1978-09-28",
        "deceasedBoolean": false
      },
      "request": {
        "method": "POST",
        "url": "Patient"
      }
    },
    {
      "fullUrl": "urn:uuid:e1f552e5-ae82-4956-bb7f-ce504e3b7eef",
      "resource": {
        "resourceType": "ServiceRequest",
        "id": "e1f552e5-ae82-4956-bb7f-ce504e3b7eef",
        "identifier": [
          {
            "type": {
              "coding": [
                {
                  "system": "http://terminology.hl7.org/NamingSystem/dui",
                  "code": "DUI"
                }
              ]
            },
            "system": "urn:dicom:uid",
            "value": "urn:oid:1.2.840.10008.5.1.4.1.1.1"
          },
          {
            "system": "http://fhir.healthcare.com/identifier/serviceRequestOrderNumber",
            "value": "{VISIT-NUMBER}"
          }
        ],
        "status": "active",
        "intent": "order",
        "code": {
          "coding": [
            {
              "system": "http://snomed.info/sct",
              "code": "73761001",
              "display": "Colonoscopy"
            }
          ]
        },
        "subject": {
          "reference": "urn:uuid:ff6029f8-71de-489f-804d-494a7ac66d50"
        },
        "locationReference": [
          {
            "reference": "Location/4ec8e3e7-cb35-40e7-a0f7-e6ce3097b348"
          }
        ],
        "performer": [
          {
            "reference": "Practitioner/24a30cf2-f857-4a38-b54a-48541460df0a"
          },
          {
            "reference": "Practitioner/787887f7-c446-489a-9abd-8a1ff8edf636"
          }
        ],
        "occurrenceDateTime": "{PROCEDURE-TIME}",
        "authoredOn": "2022-08-22T16:00:00+02:00"
      },
      "request": {
        "method": "POST",
        "url": "ServiceRequest"
      }
    },
    {
      "fullUrl": "urn:uuid:fbe00efd-a504-4274-ae55-b1b6075d6715",
      "resource": {
        "resourceType": "Procedure",
        "id": "fbe00efd-a504-4274-ae55-b1b6075d6715",
        "identifier": [
          {
            "system": "http://fhir.healthcare.com/identifier/procedure",
            "value": "procedure{VISIT-NUMBER}"
          }
        ],
        "basedOn": [
          {
            "reference": "urn:uuid:e1f552e5-ae82-4956-bb7f-ce504e3b7eef"
          }
        ],
        "performer": [
          {
            "actor": {
              "reference": "Practitioner/24a30cf2-f857-4a38-b54a-48541460df0a"
            }
          }
        ],
        "location": {
          "reference": "Location/4ec8e3e7-cb35-40e7-a0f7-e6ce3097b348"
        },
        "status": "in-progress",
        "code": {
          "coding": [
            {
              "system": "http://snomed.info/sct",
              "code": "73761001",
              "display": "Colonoscopy"
            }
          ]
        },
        "subject": {
          "reference": "urn:uuid:ff6029f8-71de-489f-804d-494a7ac66d50"
        }
      },
      "request": {
        "method": "POST",
        "url": "Procedure"
      }
    },
    {
      "fullUrl": "urn:uuid:6db92ec9-dfd8-4bc9-b50f-ddf06a764cc7",
      "resource": {
        "resourceType": "ImagingStudy",
        "id": "6db92ec9-dfd8-4bc9-b50f-ddf06a764cc7",
        "identifier": [
          {
            "system": "http://fhir.healthcare.com/identifier/imagingStudy",
            "value": "imagingstudy{VISIT-NUMBER}"
          },
          {
            "type": {
              "coding": [
                {
                  "system": "http://terminology.hl7.org/NamingSystem/dui",
                  "code": "DUI"
                }
              ]
            },
            "system": "urn:dicom:uid",
            "value": "urn:oid:1.2.840.10008.5.1.4.1.1.1"
          }
        ],
        "status": "available",
        "subject": {
          "reference": "urn:uuid:ff6029f8-71de-489f-804d-494a7ac66d50"
        },
        "basedOn": [
          {
            "reference": "urn:uuid:e1f552e5-ae82-4956-bb7f-ce504e3b7eef"
          }
        ],
        "procedureReference": {
          "reference": "urn:uuid:fbe00efd-a504-4274-ae55-b1b6075d6715"
        },
        "series": [
          {
            "uid": "1.2.840.10008.5.1.4.1.1",
            "number": 1,
            "modality": {
              "system": "https://dicom.nema.org/medical/dicom/current/output/chtml/part16/sect_CID_29.html",
              "code": "ES"
            },
            "started": "2023-09-12T07:07:13+00:00",
            "instance": [
              {
                "uid": "1.2.840.10008.5.1.4.1",
                "sopClass": {
                  "system": "https://dicom.nema.org/medical/dicom/current/output/chtml/part04/sect_B.5.html#table_B.5-1",
                  "code": "1.2.840.10008.5.1.4.1.1.77.1.1"
                }
              },
              {
                "uid": "1.2.840.10008.5.1.4.1",
                "sopClass": {
                  "system": "https://dicom.nema.org/medical/dicom/current/output/chtml/part04/sect_B.5.html#table_B.5-1",
                  "code": "1.2.840.10008.5.1.4.1.1.77.1.1"
                }
              },
              {
                "uid": "1.2.840.10008.5.1.4.2",
                "sopClass": {
                  "system": "https://dicom.nema.org/medical/dicom/current/output/chtml/part04/sect_B.5.html#table_B.5-1",
                  "code": "1.2.840.10008.5.1.4.1.1.77.1.1"
                }
              },
              {
                "uid": "1.2.840.10008.5.1.4.3",
                "sopClass": {
                  "system": "https://dicom.nema.org/medical/dicom/current/output/chtml/part04/sect_B.5.html#table_B.5-1",
                  "code": "1.2.840.10008.5.1.4.1.1.77.1.1"
                }
              }
            ]
          }
        ]
      },
      "request": {
        "method": "POST",
        "url": "ImagingStudy"
      }
    },
    {
      "fullUrl": "urn:uuid:86a6d7ca-84a7-449e-8531-691f0ece4201",
      "resource": {
        "resourceType": "Observation",
        "id": "86a6d7ca-84a7-449e-8531-691f0ece4201",
        "meta": {
          "versionId": "1",
          "lastUpdated": "2023-09-11T12:06:03.415+00:00"
        },
        "extension": [
          {
            "extension": [
              {
                "url": "saved",
                "valueBoolean": false
              },
              {
                "url": "settings",
                "valueString": "[{\"type\":\"paragraph\",\"children\":[{\"text\":\"\"}]}]"
              }
            ],
            "url": "http://fhir.healthcare.com/StructureDefinition/observationUiState"
          }
        ],
        "basedOn": [
          {
            "reference": "urn:uuid:e1f552e5-ae82-4956-bb7f-ce504e3b7eef"
          }
        ],
        "status": "final",
        "code": {
          "coding": [
            {
              "system": "http://fhir.healthcare.com/terminology",
              "code": "20230107",
              "display": "Recommendation"
            },
            {
              "system": "http://fhir.healthcare.com/terminology",
              "code": "20230107",
              "display": "Recommendation"
            }
          ],
          "text": "Recommendation"
        }
      },
      "request": {
        "method": "POST",
        "url": "Observation"
      }
    },
    {
      "fullUrl": "urn:uuid:af6666b5-c239-44a9-a8a4-0f5a6b23aed1",
      "resource": {
        "resourceType": "Observation",
        "id": "af6666b5-c239-44a9-a8a4-0f5a6b23aed1",
        "meta": {
          "versionId": "34",
          "lastUpdated": "2023-09-11T20:05:00.875+00:00"
        },
        "extension": [
          {
            "extension": [
              {
                "url": "saved",
                "valueBoolean": true
              },
              {
                "url": "settings",
                "valueString": "[{\"id\":\"20230716,1\",\"type\":\"list-item\",\"children\":[{\"id\":\"20230716,1-paragraph-root\",\"type\":\"paragraph\",\"children\":[{\"text\":\"dsadas\"},{\"id\":\"20230716\",\"type\":\"badge\",\"children\":[{\"bold\":false,\"id\":\"20230716-text\",\"text\":\"Sedation\"}]},{\"text\":\",dasda \"},{\"id\":\"20230718\",\"label\":\"Detail\",\"type\":\"badge\",\"children\":[{\"id\":\"20230102\",\"text\":\"Local anesthesia\"}]},{\"text\":\"\"}]}]},{\"id\":\"20230717,1\",\"type\":\"list-item\",\"children\":[{\"id\":\"20230717,1-paragraph-root\",\"type\":\"paragraph\",\"children\":[{\"text\":\"\"},{\"id\":\"20230717\",\"type\":\"badge\",\"children\":[{\"bold\":false,\"id\":\"20230717-text\",\"text\":\"Insufflation\"}]},{\"text\":\", \"},{\"id\":\"20230718\",\"label\":\"Detail\",\"type\":\"badge\",\"children\":[{\"id\":\"20230719\",\"text\":\"Air insufflation\"}]},{\"text\":\"asd as a\"}]}]}]"
              }
            ],
            "url": "http://fhir.healthcare.com/StructureDefinition/observationUiState"
          }
        ],
        "basedOn": [
          {
            "reference": "urn:uuid:e1f552e5-ae82-4956-bb7f-ce504e3b7eef"
          }
        ],
        "status": "final",
        "code": {
          "coding": [
            {
              "system": "http://fhir.healthcare.com/terminology",
              "code": "20230096",
              "display": "Pre-procedure details"
            },
            {
              "system": "http://fhir.healthcare.com/terminology",
              "code": "20230096",
              "display": "Pre-procedure details"
            }
          ],
          "text": "Pre-procedure details"
        },
        "valueString": "#lI$dsadasSedation,dasda Local anesthesia#lI$Insufflation, Air insufflationasd as a",
        "component": [
          {
            "extension": [
              {
                "extension": [
                  {
                    "url": "code",
                    "valueCodeableConcept": {
                      "coding": [
                        {
                          "system": "http://fhir.healthcare.com/terminology",
                          "code": "20230716",
                          "display": "Sedation"
                        },
                        {
                          "system": "http://snomed.info/sct",
                          "code": "20230716",
                          "display": "Sedation"
                        }
                      ]
                    }
                  },
                  {
                    "url": "occurrence",
                    "valueUnsignedInt": 1
                  },
                  {
                    "url": "position",
                    "valueUnsignedInt": 1
                  }
                ],
                "url": "http://fhir.healthcare.com/StructureDefinition/observationNovaFinding"
              },
              {
                "extension": [
                  {
                    "url": "code",
                    "valueCodeableConcept": {
                      "coding": [
                        {
                          "system": "http://fhir.healthcare.com/terminology",
                          "code": "20230718",
                          "display": "Detail"
                        },
                        {
                          "system": "http://snomed.info/sct",
                          "code": "20230718",
                          "display": "Detail"
                        }
                      ]
                    }
                  },
                  {
                    "url": "child",
                    "valueCodeableConcept": {
                      "coding": [
                        {
                          "system": "http://fhir.healthcare.com/terminology",
                          "code": "20230102",
                          "display": "Local anesthesia"
                        },
                        {
                          "system": "http://snomed.info/sct",
                          "code": "20230102",
                          "display": "Local anesthesia"
                        }
                      ]
                    }
                  }
                ],
                "url": "http://fhir.healthcare.com/StructureDefinition/observationNovaFinding"
              }
            ],
            "code": {
              "coding": [
                {
                  "system": "http://fhir.healthcare.com/terminology",
                  "code": "20230096",
                  "display": "Pre-procedure details"
                },
                {
                  "system": "http://fhir.healthcare.com/terminology",
                  "code": "20230096",
                  "display": "Pre-procedure details"
                }
              ],
              "text": "Pre-procedure details"
            }
          },
          {
            "extension": [
              {
                "extension": [
                  {
                    "url": "code",
                    "valueCodeableConcept": {
                      "coding": [
                        {
                          "system": "http://fhir.healthcare.com/terminology",
                          "code": "20230717",
                          "display": "Insufflation"
                        },
                        {
                          "system": "http://snomed.info/sct",
                          "code": "20230717",
                          "display": "Insufflation"
                        }
                      ]
                    }
                  },
                  {
                    "url": "occurrence",
                    "valueUnsignedInt": 1
                  },
                  {
                    "url": "position",
                    "valueUnsignedInt": 1
                  }
                ],
                "url": "http://fhir.healthcare.com/StructureDefinition/observationNovaFinding"
              },
              {
                "extension": [
                  {
                    "url": "code",
                    "valueCodeableConcept": {
                      "coding": [
                        {
                          "system": "http://fhir.healthcare.com/terminology",
                          "code": "20230718",
                          "display": "Detail"
                        },
                        {
                          "system": "http://snomed.info/sct",
                          "code": "20230718",
                          "display": "Detail"
                        }
                      ]
                    }
                  },
                  {
                    "url": "child",
                    "valueCodeableConcept": {
                      "coding": [
                        {
                          "system": "http://fhir.healthcare.com/terminology",
                          "code": "20230719",
                          "display": "Air"
                        },
                        {
                          "system": "http://snomed.info/sct",
                          "code": "20230719",
                          "display": "Air"
                        }
                      ]
                    }
                  }
                ],
                "url": "http://fhir.healthcare.com/StructureDefinition/observationNovaFinding"
              }
            ],
            "code": {
              "coding": [
                {
                  "system": "http://fhir.healthcare.com/terminology",
                  "code": "20230096",
                  "display": "Pre-procedure details"
                },
                {
                  "system": "http://fhir.healthcare.com/terminology",
                  "code": "20230096",
                  "display": "Pre-procedure details"
                }
              ],
              "text": "Pre-procedure details"
            }
          }
        ]
      },
      "request": {
        "method": "POST",
        "url": "Observation"
      }
    },
    {
      "fullUrl": "urn:uuid:1333163f-33b2-47cf-af0f-658b6a27c219",
      "resource": {
        "resourceType": "Observation",
        "id": "1333163f-33b2-47cf-af0f-658b6a27c219",
        "meta": {
          "versionId": "33",
          "lastUpdated": "2023-09-11T20:05:00.922+00:00"
        },
        "extension": [
          {
            "extension": [
              {
                "url": "saved",
                "valueBoolean": true
              },
              {
                "url": "settings",
                "valueString": "[{\"id\":\"20230735,1\",\"type\":\"list-item\",\"children\":[{\"id\":\"20230735,1-paragraph-root\",\"type\":\"paragraph\",\"children\":[{\"text\":\"asdsa\"},{\"id\":\"20230735\",\"type\":\"badge\",\"children\":[{\"bold\":false,\"id\":\"20230735-text\",\"text\":\"Colon obstruction/Pseudo-obstruction\"}]},{\"text\":\", \"},{\"id\":\"20230718\",\"label\":\"Detail\",\"type\":\"badge\",\"children\":[{\"id\":\"20230231\",\"text\":\"Stent removed\"}]},{\"text\":\"dsadsa\"}]}]},{\"id\":\"20230713,1\",\"type\":\"list-item\",\"children\":[{\"id\":\"20230713,1-paragraph-root\",\"type\":\"paragraph\",\"children\":[{\"text\":\"\"},{\"id\":\"20230713\",\"type\":\"badge\",\"children\":[{\"bold\":false,\"id\":\"20230713-text\",\"text\":\"Diarrhea\"}]},{\"text\":\", \"},{\"id\":\"20230718\",\"label\":\"Detail\",\"type\":\"badge\",\"children\":[{\"id\":\"20230220\",\"text\":\"Chronic alternating diarrhoea / constipation\"}]},{\"text\":\"\"}]}]}]"
              }
            ],
            "url": "http://fhir.healthcare.com/StructureDefinition/observationUiState"
          }
        ],
        "basedOn": [
          {
            "reference": "urn:uuid:e1f552e5-ae82-4956-bb7f-ce504e3b7eef"
          }
        ],
        "status": "final",
        "code": {
          "coding": [
            {
              "system": "http://fhir.healthcare.com/terminology",
              "code": "20230202",
              "display": "Indication"
            },
            {
              "system": "http://fhir.healthcare.com/terminology",
              "code": "20230202",
              "display": "Indication"
            }
          ],
          "text": "Indication"
        },
        "valueString": "#lI$asdsaColon obstruction/Pseudo-obstruction, Stent removeddsadsa#lI$Diarrhea, Chronic alternating diarrhoea / constipation",
        "component": [
          {
            "extension": [
              {
                "extension": [
                  {
                    "url": "code",
                    "valueCodeableConcept": {
                      "coding": [
                        {
                          "system": "http://fhir.healthcare.com/terminology",
                          "code": "20230735",
                          "display": "Colon obstruction/Pseudo-obstruction"
                        },
                        {
                          "system": "http://snomed.info/sct",
                          "code": "20230735",
                          "display": "Colon obstruction/Pseudo-obstruction"
                        }
                      ]
                    }
                  },
                  {
                    "url": "occurrence",
                    "valueUnsignedInt": 1
                  },
                  {
                    "url": "position",
                    "valueUnsignedInt": 1
                  }
                ],
                "url": "http://fhir.healthcare.com/StructureDefinition/observationNovaFinding"
              },
              {
                "extension": [
                  {
                    "url": "code",
                    "valueCodeableConcept": {
                      "coding": [
                        {
                          "system": "http://fhir.healthcare.com/terminology",
                          "code": "20230718",
                          "display": "Detail"
                        },
                        {
                          "system": "http://snomed.info/sct",
                          "code": "20230718",
                          "display": "Detail"
                        }
                      ]
                    }
                  },
                  {
                    "url": "child",
                    "valueCodeableConcept": {
                      "coding": [
                        {
                          "system": "http://fhir.healthcare.com/terminology",
                          "code": "20230231",
                          "display": "Stent removed"
                        },
                        {
                          "system": "http://snomed.info/sct",
                          "code": "20230231",
                          "display": "Stent removed"
                        }
                      ]
                    }
                  }
                ],
                "url": "http://fhir.healthcare.com/StructureDefinition/observationNovaFinding"
              }
            ],
            "code": {
              "coding": [
                {
                  "system": "http://fhir.healthcare.com/terminology",
                  "code": "20230202",
                  "display": "Indication"
                },
                {
                  "system": "http://fhir.healthcare.com/terminology",
                  "code": "20230202",
                  "display": "Indication"
                }
              ],
              "text": "Indication"
            }
          },
          {
            "extension": [
              {
                "extension": [
                  {
                    "url": "code",
                    "valueCodeableConcept": {
                      "coding": [
                        {
                          "system": "http://fhir.healthcare.com/terminology",
                          "code": "20230713",
                          "display": "Diarrhea"
                        },
                        {
                          "system": "http://snomed.info/sct",
                          "code": "20230713",
                          "display": "Diarrhea"
                        }
                      ]
                    }
                  },
                  {
                    "url": "occurrence",
                    "valueUnsignedInt": 1
                  },
                  {
                    "url": "position",
                    "valueUnsignedInt": 1
                  }
                ],
                "url": "http://fhir.healthcare.com/StructureDefinition/observationNovaFinding"
              },
              {
                "extension": [
                  {
                    "url": "code",
                    "valueCodeableConcept": {
                      "coding": [
                        {
                          "system": "http://fhir.healthcare.com/terminology",
                          "code": "20230718",
                          "display": "Detail"
                        },
                        {
                          "system": "http://snomed.info/sct",
                          "code": "20230718",
                          "display": "Detail"
                        }
                      ]
                    }
                  },
                  {
                    "url": "child",
                    "valueCodeableConcept": {
                      "coding": [
                        {
                          "system": "http://fhir.healthcare.com/terminology",
                          "code": "20230220",
                          "display": "Chronic alternating diarrhoea / constipation"
                        },
                        {
                          "system": "http://snomed.info/sct",
                          "code": "20230220",
                          "display": "Chronic alternating diarrhoea / constipation"
                        }
                      ]
                    }
                  }
                ],
                "url": "http://fhir.healthcare.com/StructureDefinition/observationNovaFinding"
              }
            ],
            "code": {
              "coding": [
                {
                  "system": "http://fhir.healthcare.com/terminology",
                  "code": "20230202",
                  "display": "Indication"
                },
                {
                  "system": "http://fhir.healthcare.com/terminology",
                  "code": "20230202",
                  "display": "Indication"
                }
              ],
              "text": "Indication"
            }
          }
        ]
      },
      "request": {
        "method": "POST",
        "url": "Observation"
      }
    },
    {
      "fullUrl": "urn:uuid:2c28f7d1-0b29-4ed9-ba6a-b0bc98c887f2",
      "resource": {
        "resourceType": "Observation",
        "id": "2c28f7d1-0b29-4ed9-ba6a-b0bc98c887f2",
        "meta": {
          "versionId": "32",
          "lastUpdated": "2023-09-11T20:05:00.969+00:00"
        },
        "extension": [
          {
            "extension": [
              {
                "url": "saved",
                "valueBoolean": true
              },
              {
                "url": "settings",
                "valueString": "[{\"id\":\"20230754,1\",\"type\":\"list-item\",\"children\":[{\"id\":\"20230754,1-paragraph-root\",\"type\":\"paragraph\",\"children\":[{\"text\":\"ad\"},{\"id\":\"20230754\",\"type\":\"badge\",\"children\":[{\"bold\":false,\"id\":\"20230754-text\",\"text\":\"Diazemuls - iv\"}]},{\"text\":\"\"},{\"id\":\"20230754,1-text\",\"label\":\"value\",\"type\":\"badge\",\"children\":[{\"text\":\"5 mg\"}]},{\"text\":\"\"}]}]},{\"id\":\"20230754,2\",\"type\":\"list-item\",\"children\":[{\"id\":\"20230754,2-paragraph-root\",\"type\":\"paragraph\",\"children\":[{\"text\":\"\"},{\"id\":\"20230754\",\"type\":\"badge\",\"children\":[{\"bold\":false,\"id\":\"20230754-text\",\"text\":\"Diazemuls - iv\"}]},{\"text\":\", \"},{\"id\":\"20230754,2-text\",\"label\":\"value\",\"type\":\"badge\",\"children\":[{\"text\":\"5 mg\"}]},{\"text\":\"\"}]}]},{\"id\":\"20230754,3\",\"type\":\"list-item\",\"children\":[{\"id\":\"20230754,3-paragraph-root\",\"type\":\"paragraph\",\"children\":[{\"text\":\"\"},{\"id\":\"20230754\",\"type\":\"badge\",\"children\":[{\"bold\":false,\"id\":\"20230754-text\",\"text\":\"Diazemuls - iv\"}]},{\"text\":\", \"},{\"id\":\"20230754,3-text\",\"label\":\"value\",\"type\":\"badge\",\"children\":[{\"text\":\"206 mg\"}]},{\"text\":\"\"}]}]}]"
              }
            ],
            "url": "http://fhir.healthcare.com/StructureDefinition/observationUiState"
          }
        ],
        "basedOn": [
          {
            "reference": "urn:uuid:e1f552e5-ae82-4956-bb7f-ce504e3b7eef"
          }
        ],
        "status": "final",
        "code": {
          "coding": [
            {
              "system": "http://fhir.healthcare.com/terminology",
              "code": "20230214",
              "display": "Medication"
            },
            {
              "system": "http://fhir.healthcare.com/terminology",
              "code": "20230214",
              "display": "Medication"
            }
          ],
          "text": "Medication"
        },
        "valueString": "#lI$adDiazemuls - iv5 mg#lI$Diazemuls - iv, 5 mg#lI$Diazemuls - iv, 206 mg",
        "component": [
          {
            "extension": [
              {
                "extension": [
                  {
                    "url": "code",
                    "valueCodeableConcept": {
                      "coding": [
                        {
                          "system": "http://fhir.healthcare.com/terminology",
                          "code": "20230754",
                          "display": "Diazemuls - iv"
                        },
                        {
                          "system": "http://snomed.info/sct",
                          "code": "20230754",
                          "display": "Diazemuls - iv"
                        }
                      ]
                    }
                  },
                  {
                    "url": "occurrence",
                    "valueUnsignedInt": 1
                  },
                  {
                    "url": "position",
                    "valueUnsignedInt": 1
                  },
                  {
                    "url": "text",
                    "valueString": "5"
                  }
                ],
                "url": "http://fhir.healthcare.com/StructureDefinition/observationNovaFinding"
              }
            ],
            "code": {
              "coding": [
                {
                  "system": "http://fhir.healthcare.com/terminology",
                  "code": "20230214",
                  "display": "Medication"
                },
                {
                  "system": "http://fhir.healthcare.com/terminology",
                  "code": "20230214",
                  "display": "Medication"
                }
              ],
              "text": "Medication"
            }
          },
          {
            "extension": [
              {
                "extension": [
                  {
                    "url": "code",
                    "valueCodeableConcept": {
                      "coding": [
                        {
                          "system": "http://fhir.healthcare.com/terminology",
                          "code": "20230754",
                          "display": "Diazemuls - iv"
                        },
                        {
                          "system": "http://snomed.info/sct",
                          "code": "20230754",
                          "display": "Diazemuls - iv"
                        }
                      ]
                    }
                  },
                  {
                    "url": "occurrence",
                    "valueUnsignedInt": 2
                  },
                  {
                    "url": "position",
                    "valueUnsignedInt": 2
                  },
                  {
                    "url": "text",
                    "valueString": "5"
                  }
                ],
                "url": "http://fhir.healthcare.com/StructureDefinition/observationNovaFinding"
              }
            ],
            "code": {
              "coding": [
                {
                  "system": "http://fhir.healthcare.com/terminology",
                  "code": "20230214",
                  "display": "Medication"
                },
                {
                  "system": "http://fhir.healthcare.com/terminology",
                  "code": "20230214",
                  "display": "Medication"
                }
              ],
              "text": "Medication"
            }
          },
          {
            "extension": [
              {
                "extension": [
                  {
                    "url": "code",
                    "valueCodeableConcept": {
                      "coding": [
                        {
                          "system": "http://fhir.healthcare.com/terminology",
                          "code": "20230754",
                          "display": "Diazemuls - iv"
                        },
                        {
                          "system": "http://snomed.info/sct",
                          "code": "20230754",
                          "display": "Diazemuls - iv"
                        }
                      ]
                    }
                  },
                  {
                    "url": "occurrence",
                    "valueUnsignedInt": 3
                  },
                  {
                    "url": "position",
                    "valueUnsignedInt": 3
                  },
                  {
                    "url": "text",
                    "valueString": "206"
                  }
                ],
                "url": "http://fhir.healthcare.com/StructureDefinition/observationNovaFinding"
              }
            ],
            "code": {
              "coding": [
                {
                  "system": "http://fhir.healthcare.com/terminology",
                  "code": "20230214",
                  "display": "Medication"
                },
                {
                  "system": "http://fhir.healthcare.com/terminology",
                  "code": "20230214",
                  "display": "Medication"
                }
              ],
              "text": "Medication"
            }
          }
        ]
      },
      "request": {
        "method": "POST",
        "url": "Observation"
      }
    },
    {
      "fullUrl": "urn:uuid:f5deb441-75e7-4ab0-82bc-e2c10417043a",
      "resource": {
        "resourceType": "Observation",
        "id": "f5deb441-75e7-4ab0-82bc-e2c10417043a",
        "meta": {
          "versionId": "30",
          "lastUpdated": "2023-09-11T20:05:01.016+00:00"
        },
        "extension": [
          {
            "extension": [
              {
                "url": "saved",
                "valueBoolean": true
              },
              {
                "url": "settings",
                "valueString": "[{\"id\":\"20230022,1\",\"type\":\"list-item\",\"children\":[{\"id\":\"20230022,1-paragraph-root\",\"type\":\"paragraph\",\"children\":[{\"text\":\"\"},{\"id\":\"bowel-prep-generated-text\",\"type\":\"badge\",\"children\":[{\"bold\":true,\"text\":\"BBPS was poor \"},{\"text\":\"4/9, (2+2+0).\"}]},{\"text\":\"\"}]}]}]"
              }
            ],
            "url": "http://fhir.healthcare.com/StructureDefinition/observationUiState"
          }
        ],
        "basedOn": [
          {
            "reference": "urn:uuid:e1f552e5-ae82-4956-bb7f-ce504e3b7eef"
          }
        ],
        "status": "final",
        "code": {
          "coding": [
            {
              "system": "http://fhir.healthcare.com/terminology",
              "code": "20230018",
              "display": "Bowel Preparation"
            },
            {
              "system": "http://fhir.healthcare.com/terminology",
              "code": "20230018",
              "display": "Bowel Preparation"
            }
          ],
          "text": "Bowel Preparation"
        },
        "valueString": "#lI$BBPS was poor 4/9, (2+2+0).",
        "component": [
          {
            "extension": [
              {
                "extension": [
                  {
                    "url": "code",
                    "valueCodeableConcept": {
                      "coding": [
                        {
                          "system": "http://fhir.healthcare.com/terminology",
                          "code": "20230022",
                          "display": "Boston Bowel Preparation Score"
                        },
                        {
                          "system": "http://snomed.info/sct",
                          "code": "20230022",
                          "display": "Boston Bowel Preparation Score"
                        }
                      ]
                    }
                  },
                  {
                    "url": "occurrence",
                    "valueUnsignedInt": 1
                  },
                  {
                    "url": "position",
                    "valueUnsignedInt": 1
                  }
                ],
                "url": "http://fhir.healthcare.com/StructureDefinition/observationNovaFinding"
              },
              {
                "extension": [
                  {
                    "url": "code",
                    "valueCodeableConcept": {
                      "coding": [
                        {
                          "system": "http://fhir.healthcare.com/terminology",
                          "code": "20230021",
                          "display": "Ascending colon"
                        },
                        {
                          "system": "http://snomed.info/sct",
                          "code": "20230021",
                          "display": "Ascending colon"
                        }
                      ]
                    }
                  },
                  {
                    "url": "child",
                    "valueCodeableConcept": {
                      "coding": [
                        {
                          "system": "http://fhir.healthcare.com/terminology",
                          "code": "20230742",
                          "display": "2- Good"
                        },
                        {
                          "system": "http://snomed.info/sct",
                          "code": "20230742",
                          "display": "2- Good"
                        }
                      ]
                    }
                  }
                ],
                "url": "http://fhir.healthcare.com/StructureDefinition/observationNovaFinding"
              },
              {
                "extension": [
                  {
                    "url": "code",
                    "valueCodeableConcept": {
                      "coding": [
                        {
                          "system": "http://fhir.healthcare.com/terminology",
                          "code": "20230020",
                          "display": "Transverse colon"
                        },
                        {
                          "system": "http://snomed.info/sct",
                          "code": "20230020",
                          "display": "Transverse colon"
                        }
                      ]
                    }
                  },
                  {
                    "url": "child",
                    "valueCodeableConcept": {
                      "coding": [
                        {
                          "system": "http://fhir.healthcare.com/terminology",
                          "code": "20230742",
                          "display": "2- Good"
                        },
                        {
                          "system": "http://snomed.info/sct",
                          "code": "20230742",
                          "display": "2- Good"
                        }
                      ]
                    }
                  }
                ],
                "url": "http://fhir.healthcare.com/StructureDefinition/observationNovaFinding"
              },
              {
                "extension": [
                  {
                    "url": "code",
                    "valueCodeableConcept": {
                      "coding": [
                        {
                          "system": "http://fhir.healthcare.com/terminology",
                          "code": "20230019",
                          "display": "Descending colon"
                        },
                        {
                          "system": "http://snomed.info/sct",
                          "code": "20230019",
                          "display": "Descending colon"
                        }
                      ]
                    }
                  },
                  {
                    "url": "child",
                    "valueCodeableConcept": {
                      "coding": [
                        {
                          "system": "http://fhir.healthcare.com/terminology",
                          "code": "20230740",
                          "display": "0- Inadequate"
                        },
                        {
                          "system": "http://snomed.info/sct",
                          "code": "20230740",
                          "display": "0- Inadequate"
                        }
                      ]
                    }
                  }
                ],
                "url": "http://fhir.healthcare.com/StructureDefinition/observationNovaFinding"
              }
            ],
            "code": {
              "coding": [
                {
                  "system": "http://fhir.healthcare.com/terminology",
                  "code": "20230018",
                  "display": "Bowel Preparation"
                },
                {
                  "system": "http://fhir.healthcare.com/terminology",
                  "code": "20230018",
                  "display": "Bowel Preparation"
                }
              ],
              "text": "Bowel Preparation"
            }
          }
        ]
      },
      "request": {
        "method": "POST",
        "url": "Observation"
      }
    },
    {
      "fullUrl": "urn:uuid:ca8e87bf-070d-4b70-9a13-656cb93e31a7",
      "resource": {
        "resourceType": "Observation",
        "id": "ca8e87bf-070d-4b70-9a13-656cb93e31a7",
        "meta": {
          "versionId": "25",
          "lastUpdated": "2023-09-11T20:05:01.063+00:00"
        },
        "extension": [
          {
            "extension": [
              {
                "url": "saved",
                "valueBoolean": true
              },
              {
                "url": "settings",
                "valueString": "[{\"id\":\"20230357,1\",\"type\":\"list-item\",\"children\":[{\"id\":\"20230357,1-paragraph-root\",\"type\":\"paragraph\",\"children\":[{\"text\":\"\"},{\"id\":\"20230357\",\"type\":\"badge\",\"children\":[{\"bold\":false,\"id\":\"20230357-text\",\"text\":\"Whole colon\"}]},{\"text\":\"\"}]}]}]"
              }
            ],
            "url": "http://fhir.healthcare.com/StructureDefinition/observationUiState"
          }
        ],
        "basedOn": [
          {
            "reference": "urn:uuid:e1f552e5-ae82-4956-bb7f-ce504e3b7eef"
          }
        ],
        "status": "final",
        "code": {
          "coding": [
            {
              "system": "http://fhir.healthcare.com/terminology",
              "code": "20230118",
              "display": "Extent of examination"
            },
            {
              "system": "http://fhir.healthcare.com/terminology",
              "code": "20230118",
              "display": "Extent of examination"
            }
          ],
          "text": "Extent of examination"
        },
        "valueString": "#lI$Whole colon",
        "component": [
          {
            "extension": [
              {
                "extension": [
                  {
                    "url": "code",
                    "valueCodeableConcept": {
                      "coding": [
                        {
                          "system": "http://fhir.healthcare.com/terminology",
                          "code": "20230357",
                          "display": "Whole colon"
                        },
                        {
                          "system": "http://snomed.info/sct",
                          "code": "20230357",
                          "display": "Whole colon"
                        }
                      ]
                    }
                  },
                  {
                    "url": "occurrence",
                    "valueUnsignedInt": 1
                  },
                  {
                    "url": "position",
                    "valueUnsignedInt": 1
                  }
                ],
                "url": "http://fhir.healthcare.com/StructureDefinition/observationNovaFinding"
              }
            ],
            "code": {
              "coding": [
                {
                  "system": "http://fhir.healthcare.com/terminology",
                  "code": "20230118",
                  "display": "Extent of examination"
                },
                {
                  "system": "http://fhir.healthcare.com/terminology",
                  "code": "20230118",
                  "display": "Extent of examination"
                }
              ],
              "text": "Extent of examination"
            }
          }
        ]
      },
      "request": {
        "method": "POST",
        "url": "Observation"
      }
    },
    {
      "fullUrl": "urn:uuid:b55ecc38-46c7-4863-8f7c-abc2dbdff19a",
      "resource": {
        "resourceType": "Observation",
        "id": "b55ecc38-46c7-4863-8f7c-abc2dbdff19a",
        "meta": {
          "versionId": "38",
          "lastUpdated": "2023-09-11T20:05:01.125+00:00"
        },
        "extension": [
          {
            "extension": [
              {
                "url": "saved",
                "valueBoolean": true
              },
              {
                "url": "settings",
                "valueString": "[{\"id\":\"20230484,1\",\"type\":\"list-item\",\"children\":[{\"id\":\"20230484,1-paragraph-root\",\"type\":\"paragraph\",\"children\":[{\"text\":\"\"},{\"text\":\"\"},{\"id\":\"20230484\",\"type\":\"badge\",\"children\":[{\"bold\":true,\"id\":\"20230484-text\",\"text\":\"Polyp\"}]},{\"text\":\", \"},{\"id\":\"20230323\",\"label\":\"Location\",\"type\":\"badge\",\"children\":[{\"id\":\"20230355\",\"text\":\"Splenic flexure\"}]},{\"text\":\", \"},{\"id\":\"20230326\",\"label\":\"Size\",\"type\":\"badge\",\"children\":[{\"id\":\"20230514\",\"text\":\"5 mm size\"}]},{\"text\":\", \"},{\"id\":\"20230027\",\"label\":\"Paris classification\",\"type\":\"badge\",\"children\":[{\"id\":\"20230046\",\"text\":\"Paris IIb\"}]},{\"text\":\", \"},{\"id\":\"20230482\",\"label\":\"Optical diagnosis\",\"type\":\"badge\",\"children\":[{\"id\":\"20230486\",\"text\":\"Optical diagnosis not performed\"}]},{\"text\":\", \"},{\"id\":\"20230483\",\"label\":\"Polypectomy\",\"type\":\"badge\",\"children\":[{\"id\":\"20230486\",\"text\":\"Polypectomy not performed\"}]},{\"text\":\", \"},{\"id\":\"20230481\",\"label\":\"Tattoo\",\"type\":\"badge\",\"children\":[{\"id\":\"20230487\",\"text\":\"Tattoo wasn't created\"}]},{\"text\":\", \"},{\"id\":\"20230477\",\"label\":\"Biopsy container\",\"type\":\"badge\",\"children\":[{\"id\":\"20230063\",\"text\":\"Biopsy in container 1\"}]}]}],\"tag\":\"P1\"},{\"id\":\"20230014,2\",\"type\":\"list-item\",\"children\":[{\"id\":\"20230014,2-paragraph-root\",\"type\":\"paragraph\",\"children\":[{\"text\":\"\"},{\"text\":\"\"},{\"id\":\"20230014\",\"type\":\"badge\",\"children\":[{\"bold\":true,\"id\":\"20230014-text\",\"text\":\"General Biopsy\"}]},{\"text\":\", \"},{\"id\":\"20230323\",\"label\":\"Location\",\"type\":\"badge\",\"children\":[{\"id\":\"20230223\",\"text\":\"Sigmoid\"}]},{\"text\":\", \"},{\"id\":\"20230342\",\"label\":\"Number of biopsies\",\"type\":\"badge\",\"children\":[{\"id\":\"20230165\",\"text\":\"2\"}]},{\"text\":\", \"},{\"id\":\"20230242\",\"label\":\"Reason\",\"type\":\"badge\",\"children\":[{\"id\":\"20230437\",\"text\":\"Exploratory\"}]},{\"text\":\", \"},{\"id\":\"20230184\",\"label\":\"Container\",\"type\":\"badge\",\"children\":[{\"id\":\"20230007\",\"text\":\"Container 2\"}]}]}]},{\"id\":\"20230484,3\",\"type\":\"list-item\",\"children\":[{\"id\":\"20230484,3-paragraph-root\",\"type\":\"paragraph\",\"children\":[{\"text\":\"\"},{\"text\":\"\"},{\"id\":\"20230484\",\"type\":\"badge\",\"children\":[{\"bold\":true,\"id\":\"20230484-text\",\"text\":\"Polyp\"}]},{\"text\":\", \"},{\"id\":\"20230323\",\"label\":\"Location\",\"type\":\"badge\",\"children\":[{\"id\":\"20230356\",\"text\":\"Anus\"}]},{\"text\":\", \"},{\"id\":\"20230326\",\"label\":\"Size\",\"type\":\"badge\",\"children\":[{\"id\":\"20230514\",\"text\":\"5 mm size\"}]},{\"text\":\", \"},{\"id\":\"20230027\",\"label\":\"Paris classification\",\"type\":\"badge\",\"children\":[{\"id\":\"20230053\",\"text\":\"Paris LST-NG IIc+IIa/IIa+IIc\"}]},{\"text\":\", \"},{\"id\":\"20230481\",\"label\":\"Tattoo\",\"type\":\"badge\",\"children\":[{\"id\":\"20230487\",\"text\":\"Tattoo wasn't created\"}]},{\"text\":\", \"},{\"id\":\"20230477\",\"label\":\"Biopsy container\",\"type\":\"badge\",\"children\":[{\"id\":\"20230064\",\"text\":\"Biopsy in container 3\"}]}]},{\"id\":\"20230484,3-paragraph-20230482,20230480,20230480-details\",\"type\":\"paragraph\",\"children\":[{\"text\":\"\"},{\"text\":\"\"},{\"id\":\"20230482,20230480,20230480-details\",\"type\":\"badge\",\"children\":[{\"bold\":true,\"id\":\"20230482,20230480,20230480-details-text\",\"text\":\"Optical diagnosis\"}]},{\"bold\":true,\"text\":\"- \"},{\"id\":\"20230482\",\"label\":\"Optical diagnosis\",\"type\":\"badge\",\"children\":[{\"id\":\"20230480\",\"text\":\"Performed\"}],\"separator\":{\"bold\":true,\"text\":\"- \"}},{\"text\":\", \"},{\"id\":\"20230144\",\"label\":\"Macroscopic aspect\",\"type\":\"badge\",\"children\":[{\"id\":\"20230233\",\"text\":\"Sessile serrated polyp\"}]},{\"text\":\", \"},{\"id\":\"20230026\",\"label\":\"NICE\",\"type\":\"badge\",\"children\":[{\"id\":\"20230037\",\"text\":\"NICE 2\"}]},{\"text\":\", \"},{\"id\":\"20230028\",\"label\":\"Kudo classification\",\"type\":\"badge\",\"children\":[{\"id\":\"20230494\",\"text\":\"KUDO I\"}]},{\"text\":\", \"},{\"id\":\"20230145\",\"label\":\"JNET classification\",\"type\":\"badge\",\"children\":[{\"id\":\"20230745\",\"text\":\"JNET Type 2A\"}]},{\"text\":\", \"},{\"id\":\"20230029\",\"label\":\"Features of suggestive invasion\",\"type\":\"badge\",\"children\":[{\"id\":\"20230271\",\"text\":\"Converging Folds observed\"}]},{\"text\":\", \"},{\"id\":\"20230030\",\"label\":\"Chromoendoscopy\",\"type\":\"badge\",\"children\":[{\"id\":\"20230274\",\"text\":\"Methylene blue used\"}]},{\"text\":\", \"},{\"id\":\"20230155\",\"label\":\"Confidence level\",\"type\":\"badge\",\"children\":[{\"id\":\"20230277\",\"text\":\"High confidence\"}]}]},{\"id\":\"20230484,3-paragraph-20230483,20230480,20230480-details\",\"type\":\"paragraph\",\"children\":[{\"text\":\"\"},{\"text\":\"\"},{\"id\":\"20230483,20230480,20230480-details\",\"type\":\"badge\",\"children\":[{\"bold\":true,\"id\":\"20230483,20230480,20230480-details-text\",\"text\":\"Polypectomy\"}]},{\"bold\":true,\"text\":\"- \"},{\"id\":\"20230483\",\"label\":\"Polypectomy\",\"type\":\"badge\",\"children\":[{\"id\":\"20230480\",\"text\":\"Performed\"}],\"separator\":{\"bold\":true,\"text\":\"- \"}},{\"text\":\", \"},{\"id\":\"20230337\",\"label\":\"Type\",\"type\":\"badge\",\"children\":[{\"id\":\"20230292\",\"text\":\"Hot snare\"}]},{\"text\":\", \"},{\"id\":\"20230506\",\"label\":\"Injection solution\",\"type\":\"badge\",\"children\":[{\"id\":\"20230146\",\"text\":\"Gelafundin used\"}]},{\"text\":\", \"},{\"id\":\"20230508\",\"label\":\"Number of fragments\",\"type\":\"badge\",\"children\":[{\"id\":\"20230166\",\"text\":\"3 fragments\"}]},{\"text\":\", \"},{\"id\":\"20230509\",\"label\":\"Retrieval\",\"type\":\"badge\",\"children\":[{\"id\":\"20230503\",\"text\":\"Partially retrieved\"}]},{\"text\":\", \"},{\"id\":\"20230155\",\"label\":\"Confidence level\",\"type\":\"badge\",\"children\":[{\"id\":\"20230276\",\"text\":\"Low confidence\"}]},{\"text\":\", \"},{\"id\":\"20230535\",\"label\":\"Polypectomy container\",\"type\":\"badge\",\"children\":[{\"id\":\"20230064\",\"text\":\"Polypectomy in container 3\"}]},{\"text\":\", \"},{\"id\":\"20230190\",\"label\":\"Complications\",\"type\":\"badge\",\"children\":[{\"id\":\"20230058\",\"text\":\"Equipment Failure identified\"}]},{\"text\":\", \"},{\"id\":\"20230781\",\"label\":\"Complication treatment\",\"type\":\"badge\",\"children\":[{\"id\":\"20230786\",\"text\":\"Treated with colon Prosthesis (placement)\"}]}]}]},{\"id\":\"20230484,4\",\"type\":\"list-item\",\"children\":[{\"id\":\"20230484,4-paragraph-root\",\"type\":\"paragraph\",\"children\":[{\"text\":\"\"},{\"text\":\"\"},{\"id\":\"20230484\",\"type\":\"badge\",\"children\":[{\"bold\":true,\"id\":\"20230484-text\",\"text\":\"Polyp\"}]},{\"text\":\", \"},{\"id\":\"20230323\",\"label\":\"Location\",\"type\":\"badge\",\"children\":[{\"id\":\"20230223\",\"text\":\"Sigmoid\"}]},{\"text\":\", \"},{\"id\":\"20230326\",\"label\":\"Size\",\"type\":\"badge\",\"children\":[{\"id\":\"20230557\",\"text\":\"55 mm size\"}]},{\"text\":\", \"},{\"id\":\"20230027\",\"label\":\"Paris classification\",\"type\":\"badge\",\"children\":[{\"id\":\"20230052\",\"text\":\"Paris LST-NG IIa\"}]},{\"text\":\", \"},{\"id\":\"20230481\",\"label\":\"Tattoo\",\"type\":\"badge\",\"children\":[{\"id\":\"20230378\",\"text\":\"Tattoo was created\"}]},{\"text\":\", \"},{\"id\":\"20230477\",\"label\":\"Biopsy container\",\"type\":\"badge\",\"children\":[{\"id\":\"20230064\",\"text\":\"Biopsy in container 3\"}]}]}]}]"
              }
            ],
            "url": "http://fhir.healthcare.com/StructureDefinition/observationUiState"
          }
        ],
        "basedOn": [
          {
            "reference": "urn:uuid:e1f552e5-ae82-4956-bb7f-ce504e3b7eef"
          }
        ],
        "status": "final",
        "code": {
          "coding": [
            {
              "system": "http://fhir.healthcare.com/terminology",
              "code": "20230006",
              "display": "Findings"
            },
            {
              "system": "http://fhir.healthcare.com/terminology",
              "code": "20230006",
              "display": "Findings"
            }
          ],
          "text": "Findings"
        },
        "valueString": "#lI$Polyp, Splenic flexure, 5 mm size, Paris IIb, Optical diagnosis not performed, Polypectomy not performed, Tattoo wasn't created, Biopsy in container 1#lI$General Biopsy, Sigmoid, 2, Exploratory, Container 2#lI$Polyp, Anus, 5 mm size, Paris LST-NG IIc+IIa/IIa+IIc, Tattoo wasn't created, Biopsy in container 3Optical diagnosis- Performed, Sessile serrated polyp, NICE 2, KUDO I, JNET Type 2A, Converging Folds observed, Methylene blue used, High confidencePolypectomy- Performed, Hot snare, Gelafundin used, 3 fragments, Partially retrieved, Low confidence, Polypectomy in container 3, Equipment Failure identified, Treated with colon Prosthesis (placement)#lI$Polyp, Sigmoid, 55 mm size, Paris LST-NG IIa, Tattoo was created, Biopsy in container 3",
        "component": [
          {
            "extension": [
              {
                "extension": [
                  {
                    "url": "code",
                    "valueCodeableConcept": {
                      "coding": [
                        {
                          "system": "http://fhir.healthcare.com/terminology",
                          "code": "20230484",
                          "display": "Polyp"
                        },
                        {
                          "system": "http://snomed.info/sct",
                          "code": "20230484",
                          "display": "Polyp"
                        }
                      ]
                    }
                  },
                  {
                    "url": "occurrence",
                    "valueUnsignedInt": 1
                  },
                  {
                    "url": "position",
                    "valueUnsignedInt": 1
                  }
                ],
                "url": "http://fhir.healthcare.com/StructureDefinition/observationNovaFinding"
              },
              {
                "extension": [
                  {
                    "url": "code",
                    "valueCodeableConcept": {
                      "coding": [
                        {
                          "system": "http://fhir.healthcare.com/terminology",
                          "code": "20230323",
                          "display": "Location"
                        },
                        {
                          "system": "http://snomed.info/sct",
                          "code": "20230323",
                          "display": "Location"
                        }
                      ]
                    }
                  },
                  {
                    "url": "child",
                    "valueCodeableConcept": {
                      "coding": [
                        {
                          "system": "http://fhir.healthcare.com/terminology",
                          "code": "20230355",
                          "display": "Splenic flexure"
                        },
                        {
                          "system": "http://snomed.info/sct",
                          "code": "20230355",
                          "display": "Splenic flexure"
                        }
                      ]
                    }
                  }
                ],
                "url": "http://fhir.healthcare.com/StructureDefinition/observationNovaFinding"
              },
              {
                "extension": [
                  {
                    "url": "code",
                    "valueCodeableConcept": {
                      "coding": [
                        {
                          "system": "http://fhir.healthcare.com/terminology",
                          "code": "20230326",
                          "display": "Size"
                        },
                        {
                          "system": "http://snomed.info/sct",
                          "code": "20230326",
                          "display": "Size"
                        }
                      ]
                    }
                  },
                  {
                    "url": "child",
                    "valueCodeableConcept": {
                      "coding": [
                        {
                          "system": "http://fhir.healthcare.com/terminology",
                          "code": "20230514",
                          "display": "5 mm"
                        },
                        {
                          "system": "http://snomed.info/sct",
                          "code": "20230514",
                          "display": "5 mm"
                        }
                      ]
                    }
                  }
                ],
                "url": "http://fhir.healthcare.com/StructureDefinition/observationNovaFinding"
              },
              {
                "extension": [
                  {
                    "url": "code",
                    "valueCodeableConcept": {
                      "coding": [
                        {
                          "system": "http://fhir.healthcare.com/terminology",
                          "code": "20230027",
                          "display": "Paris classification"
                        },
                        {
                          "system": "http://snomed.info/sct",
                          "code": "20230027",
                          "display": "Paris classification"
                        }
                      ]
                    }
                  },
                  {
                    "url": "child",
                    "valueCodeableConcept": {
                      "coding": [
                        {
                          "system": "http://fhir.healthcare.com/terminology",
                          "code": "20230046",
                          "display": "Completely flat (IIb)"
                        },
                        {
                          "system": "http://snomed.info/sct",
                          "code": "20230046",
                          "display": "Completely flat (IIb)"
                        }
                      ]
                    }
                  }
                ],
                "url": "http://fhir.healthcare.com/StructureDefinition/observationNovaFinding"
              },
              {
                "extension": [
                  {
                    "url": "code",
                    "valueCodeableConcept": {
                      "coding": [
                        {
                          "system": "http://fhir.healthcare.com/terminology",
                          "code": "20230482",
                          "display": "Optical diagnosis"
                        },
                        {
                          "system": "http://snomed.info/sct",
                          "code": "20230482",
                          "display": "Optical diagnosis"
                        }
                      ]
                    }
                  },
                  {
                    "url": "child",
                    "valueCodeableConcept": {
                      "coding": [
                        {
                          "system": "http://fhir.healthcare.com/terminology",
                          "code": "20230486",
                          "display": "Not performed"
                        },
                        {
                          "system": "http://snomed.info/sct",
                          "code": "20230486",
                          "display": "Not performed"
                        }
                      ]
                    }
                  }
                ],
                "url": "http://fhir.healthcare.com/StructureDefinition/observationNovaFinding"
              },
              {
                "extension": [
                  {
                    "url": "code",
                    "valueCodeableConcept": {
                      "coding": [
                        {
                          "system": "http://fhir.healthcare.com/terminology",
                          "code": "20230483",
                          "display": "Polypectomy"
                        },
                        {
                          "system": "http://snomed.info/sct",
                          "code": "20230483",
                          "display": "Polypectomy"
                        }
                      ]
                    }
                  },
                  {
                    "url": "child",
                    "valueCodeableConcept": {
                      "coding": [
                        {
                          "system": "http://fhir.healthcare.com/terminology",
                          "code": "20230486",
                          "display": "Not performed"
                        },
                        {
                          "system": "http://snomed.info/sct",
                          "code": "20230486",
                          "display": "Not performed"
                        }
                      ]
                    }
                  }
                ],
                "url": "http://fhir.healthcare.com/StructureDefinition/observationNovaFinding"
              },
              {
                "extension": [
                  {
                    "url": "code",
                    "valueCodeableConcept": {
                      "coding": [
                        {
                          "system": "http://fhir.healthcare.com/terminology",
                          "code": "20230481",
                          "display": "Tattoo"
                        },
                        {
                          "system": "http://snomed.info/sct",
                          "code": "20230481",
                          "display": "Tattoo"
                        }
                      ]
                    }
                  },
                  {
                    "url": "child",
                    "valueCodeableConcept": {
                      "coding": [
                        {
                          "system": "http://fhir.healthcare.com/terminology",
                          "code": "20230487",
                          "display": "Not created"
                        },
                        {
                          "system": "http://snomed.info/sct",
                          "code": "20230487",
                          "display": "Not created"
                        }
                      ]
                    }
                  }
                ],
                "url": "http://fhir.healthcare.com/StructureDefinition/observationNovaFinding"
              },
              {
                "extension": [
                  {
                    "url": "code",
                    "valueCodeableConcept": {
                      "coding": [
                        {
                          "system": "http://fhir.healthcare.com/terminology",
                          "code": "20230477",
                          "display": "Biopsy container"
                        },
                        {
                          "system": "http://snomed.info/sct",
                          "code": "20230477",
                          "display": "Biopsy container"
                        }
                      ]
                    }
                  },
                  {
                    "url": "child",
                    "valueCodeableConcept": {
                      "coding": [
                        {
                          "system": "http://fhir.healthcare.com/terminology",
                          "code": "20230063",
                          "display": "Container 1"
                        },
                        {
                          "system": "http://snomed.info/sct",
                          "code": "20230063",
                          "display": "Container 1"
                        }
                      ]
                    }
                  }
                ],
                "url": "http://fhir.healthcare.com/StructureDefinition/observationNovaFinding"
              }
            ],
            "code": {
              "coding": [
                {
                  "system": "http://fhir.healthcare.com/terminology",
                  "code": "20230006",
                  "display": "Findings"
                },
                {
                  "system": "http://fhir.healthcare.com/terminology",
                  "code": "20230006",
                  "display": "Findings"
                }
              ],
              "text": "Findings"
            }
          },
          {
            "extension": [
              {
                "extension": [
                  {
                    "url": "code",
                    "valueCodeableConcept": {
                      "coding": [
                        {
                          "system": "http://fhir.healthcare.com/terminology",
                          "code": "20230014",
                          "display": "General Biopsy"
                        },
                        {
                          "system": "http://snomed.info/sct",
                          "code": "20230014",
                          "display": "General Biopsy"
                        }
                      ]
                    }
                  },
                  {
                    "url": "occurrence",
                    "valueUnsignedInt": 2
                  },
                  {
                    "url": "position",
                    "valueUnsignedInt": 2
                  }
                ],
                "url": "http://fhir.healthcare.com/StructureDefinition/observationNovaFinding"
              },
              {
                "extension": [
                  {
                    "url": "code",
                    "valueCodeableConcept": {
                      "coding": [
                        {
                          "system": "http://fhir.healthcare.com/terminology",
                          "code": "20230323",
                          "display": "Location"
                        },
                        {
                          "system": "http://snomed.info/sct",
                          "code": "20230323",
                          "display": "Location"
                        }
                      ]
                    }
                  },
                  {
                    "url": "child",
                    "valueCodeableConcept": {
                      "coding": [
                        {
                          "system": "http://fhir.healthcare.com/terminology",
                          "code": "20230223",
                          "display": "Sigmoid"
                        },
                        {
                          "system": "http://snomed.info/sct",
                          "code": "20230223",
                          "display": "Sigmoid"
                        }
                      ]
                    }
                  }
                ],
                "url": "http://fhir.healthcare.com/StructureDefinition/observationNovaFinding"
              },
              {
                "extension": [
                  {
                    "url": "code",
                    "valueCodeableConcept": {
                      "coding": [
                        {
                          "system": "http://fhir.healthcare.com/terminology",
                          "code": "20230342",
                          "display": "Number of biopsies"
                        },
                        {
                          "system": "http://snomed.info/sct",
                          "code": "20230342",
                          "display": "Number of biopsies"
                        }
                      ]
                    }
                  },
                  {
                    "url": "child",
                    "valueCodeableConcept": {
                      "coding": [
                        {
                          "system": "http://fhir.healthcare.com/terminology",
                          "code": "20230165",
                          "display": "2"
                        },
                        {
                          "system": "http://snomed.info/sct",
                          "code": "20230165",
                          "display": "2"
                        }
                      ]
                    }
                  }
                ],
                "url": "http://fhir.healthcare.com/StructureDefinition/observationNovaFinding"
              },
              {
                "extension": [
                  {
                    "url": "code",
                    "valueCodeableConcept": {
                      "coding": [
                        {
                          "system": "http://fhir.healthcare.com/terminology",
                          "code": "20230242",
                          "display": "Reason"
                        },
                        {
                          "system": "http://snomed.info/sct",
                          "code": "20230242",
                          "display": "Reason"
                        }
                      ]
                    }
                  },
                  {
                    "url": "child",
                    "valueCodeableConcept": {
                      "coding": [
                        {
                          "system": "http://fhir.healthcare.com/terminology",
                          "code": "20230437",
                          "display": "Exploratory"
                        },
                        {
                          "system": "http://snomed.info/sct",
                          "code": "20230437",
                          "display": "Exploratory"
                        }
                      ]
                    }
                  }
                ],
                "url": "http://fhir.healthcare.com/StructureDefinition/observationNovaFinding"
              },
              {
                "extension": [
                  {
                    "url": "code",
                    "valueCodeableConcept": {
                      "coding": [
                        {
                          "system": "http://fhir.healthcare.com/terminology",
                          "code": "20230184",
                          "display": "Container"
                        },
                        {
                          "system": "http://snomed.info/sct",
                          "code": "20230184",
                          "display": "Container"
                        }
                      ]
                    }
                  },
                  {
                    "url": "child",
                    "valueCodeableConcept": {
                      "coding": [
                        {
                          "system": "http://fhir.healthcare.com/terminology",
                          "code": "20230007",
                          "display": "Container 2"
                        },
                        {
                          "system": "http://snomed.info/sct",
                          "code": "20230007",
                          "display": "Container 2"
                        }
                      ]
                    }
                  }
                ],
                "url": "http://fhir.healthcare.com/StructureDefinition/observationNovaFinding"
              }
            ],
            "code": {
              "coding": [
                {
                  "system": "http://fhir.healthcare.com/terminology",
                  "code": "20230006",
                  "display": "Findings"
                },
                {
                  "system": "http://fhir.healthcare.com/terminology",
                  "code": "20230006",
                  "display": "Findings"
                }
              ],
              "text": "Findings"
            }
          },
          {
            "extension": [
              {
                "extension": [
                  {
                    "url": "code",
                    "valueCodeableConcept": {
                      "coding": [
                        {
                          "system": "http://fhir.healthcare.com/terminology",
                          "code": "20230484",
                          "display": "Polyp"
                        },
                        {
                          "system": "http://snomed.info/sct",
                          "code": "20230484",
                          "display": "Polyp"
                        }
                      ]
                    }
                  },
                  {
                    "url": "occurrence",
                    "valueUnsignedInt": 3
                  },
                  {
                    "url": "position",
                    "valueUnsignedInt": 3
                  }
                ],
                "url": "http://fhir.healthcare.com/StructureDefinition/observationNovaFinding"
              },
              {
                "extension": [
                  {
                    "url": "code",
                    "valueCodeableConcept": {
                      "coding": [
                        {
                          "system": "http://fhir.healthcare.com/terminology",
                          "code": "20230323",
                          "display": "Location"
                        },
                        {
                          "system": "http://snomed.info/sct",
                          "code": "20230323",
                          "display": "Location"
                        }
                      ]
                    }
                  },
                  {
                    "url": "child",
                    "valueCodeableConcept": {
                      "coding": [
                        {
                          "system": "http://fhir.healthcare.com/terminology",
                          "code": "20230356",
                          "display": "Anus"
                        },
                        {
                          "system": "http://snomed.info/sct",
                          "code": "20230356",
                          "display": "Anus"
                        }
                      ]
                    }
                  }
                ],
                "url": "http://fhir.healthcare.com/StructureDefinition/observationNovaFinding"
              },
              {
                "extension": [
                  {
                    "url": "code",
                    "valueCodeableConcept": {
                      "coding": [
                        {
                          "system": "http://fhir.healthcare.com/terminology",
                          "code": "20230326",
                          "display": "Size"
                        },
                        {
                          "system": "http://snomed.info/sct",
                          "code": "20230326",
                          "display": "Size"
                        }
                      ]
                    }
                  },
                  {
                    "url": "child",
                    "valueCodeableConcept": {
                      "coding": [
                        {
                          "system": "http://fhir.healthcare.com/terminology",
                          "code": "20230514",
                          "display": "5 mm"
                        },
                        {
                          "system": "http://snomed.info/sct",
                          "code": "20230514",
                          "display": "5 mm"
                        }
                      ]
                    }
                  }
                ],
                "url": "http://fhir.healthcare.com/StructureDefinition/observationNovaFinding"
              },
              {
                "extension": [
                  {
                    "url": "code",
                    "valueCodeableConcept": {
                      "coding": [
                        {
                          "system": "http://fhir.healthcare.com/terminology",
                          "code": "20230027",
                          "display": "Paris classification"
                        },
                        {
                          "system": "http://snomed.info/sct",
                          "code": "20230027",
                          "display": "Paris classification"
                        }
                      ]
                    }
                  },
                  {
                    "url": "child",
                    "valueCodeableConcept": {
                      "coding": [
                        {
                          "system": "http://fhir.healthcare.com/terminology",
                          "code": "20230053",
                          "display": "LST-NG Pseudodepressed (IIc+IIa/IIa+IIc)"
                        },
                        {
                          "system": "http://snomed.info/sct",
                          "code": "20230053",
                          "display": "LST-NG Pseudodepressed (IIc+IIa/IIa+IIc)"
                        }
                      ]
                    }
                  }
                ],
                "url": "http://fhir.healthcare.com/StructureDefinition/observationNovaFinding"
              },
              {
                "extension": [
                  {
                    "url": "code",
                    "valueCodeableConcept": {
                      "coding": [
                        {
                          "system": "http://fhir.healthcare.com/terminology",
                          "code": "20230482",
                          "display": "Optical diagnosis"
                        },
                        {
                          "system": "http://snomed.info/sct",
                          "code": "20230482",
                          "display": "Optical diagnosis"
                        }
                      ]
                    }
                  },
                  {
                    "url": "child",
                    "valueCodeableConcept": {
                      "coding": [
                        {
                          "system": "http://fhir.healthcare.com/terminology",
                          "code": "20230480",
                          "display": "Performed"
                        },
                        {
                          "system": "http://snomed.info/sct",
                          "code": "20230480",
                          "display": "Performed"
                        }
                      ]
                    }
                  }
                ],
                "url": "http://fhir.healthcare.com/StructureDefinition/observationNovaFinding"
              },
              {
                "extension": [
                  {
                    "url": "code",
                    "valueCodeableConcept": {
                      "coding": [
                        {
                          "system": "http://fhir.healthcare.com/terminology",
                          "code": "20230482",
                          "display": "Optical diagnosis"
                        },
                        {
                          "system": "http://snomed.info/sct",
                          "code": "20230482",
                          "display": "Optical diagnosis"
                        }
                      ]
                    }
                  },
                  {
                    "url": "child",
                    "valueCodeableConcept": {
                      "coding": [
                        {
                          "system": "http://fhir.healthcare.com/terminology",
                          "code": "20230480",
                          "display": "Performed"
                        },
                        {
                          "system": "http://snomed.info/sct",
                          "code": "20230480",
                          "display": "Performed"
                        }
                      ]
                    }
                  },
                  {
                    "url": "child",
                    "valueCodeableConcept": {
                      "coding": [
                        {
                          "system": "http://fhir.healthcare.com/terminology",
                          "code": "20230144",
                          "display": "Macroscopic aspect"
                        },
                        {
                          "system": "http://snomed.info/sct",
                          "code": "20230144",
                          "display": "Macroscopic aspect"
                        }
                      ]
                    }
                  },
                  {
                    "url": "child",
                    "valueCodeableConcept": {
                      "coding": [
                        {
                          "system": "http://fhir.healthcare.com/terminology",
                          "code": "20230233",
                          "display": "Sessile serrated polyp"
                        },
                        {
                          "system": "http://snomed.info/sct",
                          "code": "20230233",
                          "display": "Sessile serrated polyp"
                        }
                      ]
                    }
                  }
                ],
                "url": "http://fhir.healthcare.com/StructureDefinition/observationNovaFinding"
              },
              {
                "extension": [
                  {
                    "url": "code",
                    "valueCodeableConcept": {
                      "coding": [
                        {
                          "system": "http://fhir.healthcare.com/terminology",
                          "code": "20230482",
                          "display": "Optical diagnosis"
                        },
                        {
                          "system": "http://snomed.info/sct",
                          "code": "20230482",
                          "display": "Optical diagnosis"
                        }
                      ]
                    }
                  },
                  {
                    "url": "child",
                    "valueCodeableConcept": {
                      "coding": [
                        {
                          "system": "http://fhir.healthcare.com/terminology",
                          "code": "20230480",
                          "display": "Performed"
                        },
                        {
                          "system": "http://snomed.info/sct",
                          "code": "20230480",
                          "display": "Performed"
                        }
                      ]
                    }
                  },
                  {
                    "url": "child",
                    "valueCodeableConcept": {
                      "coding": [
                        {
                          "system": "http://fhir.healthcare.com/terminology",
                          "code": "20230026",
                          "display": "NICE"
                        },
                        {
                          "system": "http://snomed.info/sct",
                          "code": "20230026",
                          "display": "NICE"
                        }
                      ]
                    }
                  },
                  {
                    "url": "child",
                    "valueCodeableConcept": {
                      "coding": [
                        {
                          "system": "http://fhir.healthcare.com/terminology",
                          "code": "20230037",
                          "display": "NICE 2"
                        },
                        {
                          "system": "http://snomed.info/sct",
                          "code": "20230037",
                          "display": "NICE 2"
                        }
                      ]
                    }
                  }
                ],
                "url": "http://fhir.healthcare.com/StructureDefinition/observationNovaFinding"
              },
              {
                "extension": [
                  {
                    "url": "code",
                    "valueCodeableConcept": {
                      "coding": [
                        {
                          "system": "http://fhir.healthcare.com/terminology",
                          "code": "20230482",
                          "display": "Optical diagnosis"
                        },
                        {
                          "system": "http://snomed.info/sct",
                          "code": "20230482",
                          "display": "Optical diagnosis"
                        }
                      ]
                    }
                  },
                  {
                    "url": "child",
                    "valueCodeableConcept": {
                      "coding": [
                        {
                          "system": "http://fhir.healthcare.com/terminology",
                          "code": "20230480",
                          "display": "Performed"
                        },
                        {
                          "system": "http://snomed.info/sct",
                          "code": "20230480",
                          "display": "Performed"
                        }
                      ]
                    }
                  },
                  {
                    "url": "child",
                    "valueCodeableConcept": {
                      "coding": [
                        {
                          "system": "http://fhir.healthcare.com/terminology",
                          "code": "20230028",
                          "display": "Kudo classification"
                        },
                        {
                          "system": "http://snomed.info/sct",
                          "code": "20230028",
                          "display": "Kudo classification"
                        }
                      ]
                    }
                  },
                  {
                    "url": "child",
                    "valueCodeableConcept": {
                      "coding": [
                        {
                          "system": "http://fhir.healthcare.com/terminology",
                          "code": "20230494",
                          "display": "Round, regular (Kudo l)"
                        },
                        {
                          "system": "http://snomed.info/sct",
                          "code": "20230494",
                          "display": "Round, regular (Kudo l)"
                        }
                      ]
                    }
                  }
                ],
                "url": "http://fhir.healthcare.com/StructureDefinition/observationNovaFinding"
              },
              {
                "extension": [
                  {
                    "url": "code",
                    "valueCodeableConcept": {
                      "coding": [
                        {
                          "system": "http://fhir.healthcare.com/terminology",
                          "code": "20230482",
                          "display": "Optical diagnosis"
                        },
                        {
                          "system": "http://snomed.info/sct",
                          "code": "20230482",
                          "display": "Optical diagnosis"
                        }
                      ]
                    }
                  },
                  {
                    "url": "child",
                    "valueCodeableConcept": {
                      "coding": [
                        {
                          "system": "http://fhir.healthcare.com/terminology",
                          "code": "20230480",
                          "display": "Performed"
                        },
                        {
                          "system": "http://snomed.info/sct",
                          "code": "20230480",
                          "display": "Performed"
                        }
                      ]
                    }
                  },
                  {
                    "url": "child",
                    "valueCodeableConcept": {
                      "coding": [
                        {
                          "system": "http://fhir.healthcare.com/terminology",
                          "code": "20230145",
                          "display": "JNET classification"
                        },
                        {
                          "system": "http://snomed.info/sct",
                          "code": "20230145",
                          "display": "JNET classification"
                        }
                      ]
                    }
                  },
                  {
                    "url": "child",
                    "valueCodeableConcept": {
                      "coding": [
                        {
                          "system": "http://fhir.healthcare.com/terminology",
                          "code": "20230745",
                          "display": "JNET Type 2A"
                        },
                        {
                          "system": "http://snomed.info/sct",
                          "code": "20230745",
                          "display": "JNET Type 2A"
                        }
                      ]
                    }
                  }
                ],
                "url": "http://fhir.healthcare.com/StructureDefinition/observationNovaFinding"
              },
              {
                "extension": [
                  {
                    "url": "code",
                    "valueCodeableConcept": {
                      "coding": [
                        {
                          "system": "http://fhir.healthcare.com/terminology",
                          "code": "20230482",
                          "display": "Optical diagnosis"
                        },
                        {
                          "system": "http://snomed.info/sct",
                          "code": "20230482",
                          "display": "Optical diagnosis"
                        }
                      ]
                    }
                  },
                  {
                    "url": "child",
                    "valueCodeableConcept": {
                      "coding": [
                        {
                          "system": "http://fhir.healthcare.com/terminology",
                          "code": "20230480",
                          "display": "Performed"
                        },
                        {
                          "system": "http://snomed.info/sct",
                          "code": "20230480",
                          "display": "Performed"
                        }
                      ]
                    }
                  },
                  {
                    "url": "child",
                    "valueCodeableConcept": {
                      "coding": [
                        {
                          "system": "http://fhir.healthcare.com/terminology",
                          "code": "20230029",
                          "display": "Features of suggestive invasion"
                        },
                        {
                          "system": "http://snomed.info/sct",
                          "code": "20230029",
                          "display": "Features of suggestive invasion"
                        }
                      ]
                    }
                  },
                  {
                    "url": "child",
                    "valueCodeableConcept": {
                      "coding": [
                        {
                          "system": "http://fhir.healthcare.com/terminology",
                          "code": "20230271",
                          "display": "Converging Folds"
                        },
                        {
                          "system": "http://snomed.info/sct",
                          "code": "20230271",
                          "display": "Converging Folds"
                        }
                      ]
                    }
                  }
                ],
                "url": "http://fhir.healthcare.com/StructureDefinition/observationNovaFinding"
              },
              {
                "extension": [
                  {
                    "url": "code",
                    "valueCodeableConcept": {
                      "coding": [
                        {
                          "system": "http://fhir.healthcare.com/terminology",
                          "code": "20230482",
                          "display": "Optical diagnosis"
                        },
                        {
                          "system": "http://snomed.info/sct",
                          "code": "20230482",
                          "display": "Optical diagnosis"
                        }
                      ]
                    }
                  },
                  {
                    "url": "child",
                    "valueCodeableConcept": {
                      "coding": [
                        {
                          "system": "http://fhir.healthcare.com/terminology",
                          "code": "20230480",
                          "display": "Performed"
                        },
                        {
                          "system": "http://snomed.info/sct",
                          "code": "20230480",
                          "display": "Performed"
                        }
                      ]
                    }
                  },
                  {
                    "url": "child",
                    "valueCodeableConcept": {
                      "coding": [
                        {
                          "system": "http://fhir.healthcare.com/terminology",
                          "code": "20230030",
                          "display": "Chromoendoscopy"
                        },
                        {
                          "system": "http://snomed.info/sct",
                          "code": "20230030",
                          "display": "Chromoendoscopy"
                        }
                      ]
                    }
                  },
                  {
                    "url": "child",
                    "valueCodeableConcept": {
                      "coding": [
                        {
                          "system": "http://fhir.healthcare.com/terminology",
                          "code": "20230274",
                          "display": "Methylene blue"
                        },
                        {
                          "system": "http://snomed.info/sct",
                          "code": "20230274",
                          "display": "Methylene blue"
                        }
                      ]
                    }
                  }
                ],
                "url": "http://fhir.healthcare.com/StructureDefinition/observationNovaFinding"
              },
              {
                "extension": [
                  {
                    "url": "code",
                    "valueCodeableConcept": {
                      "coding": [
                        {
                          "system": "http://fhir.healthcare.com/terminology",
                          "code": "20230482",
                          "display": "Optical diagnosis"
                        },
                        {
                          "system": "http://snomed.info/sct",
                          "code": "20230482",
                          "display": "Optical diagnosis"
                        }
                      ]
                    }
                  },
                  {
                    "url": "child",
                    "valueCodeableConcept": {
                      "coding": [
                        {
                          "system": "http://fhir.healthcare.com/terminology",
                          "code": "20230480",
                          "display": "Performed"
                        },
                        {
                          "system": "http://snomed.info/sct",
                          "code": "20230480",
                          "display": "Performed"
                        }
                      ]
                    }
                  },
                  {
                    "url": "child",
                    "valueCodeableConcept": {
                      "coding": [
                        {
                          "system": "http://fhir.healthcare.com/terminology",
                          "code": "20230155",
                          "display": "Confidence level"
                        },
                        {
                          "system": "http://snomed.info/sct",
                          "code": "20230155",
                          "display": "Confidence level"
                        }
                      ]
                    }
                  },
                  {
                    "url": "child",
                    "valueCodeableConcept": {
                      "coding": [
                        {
                          "system": "http://fhir.healthcare.com/terminology",
                          "code": "20230277",
                          "display": "High"
                        },
                        {
                          "system": "http://snomed.info/sct",
                          "code": "20230277",
                          "display": "High"
                        }
                      ]
                    }
                  }
                ],
                "url": "http://fhir.healthcare.com/StructureDefinition/observationNovaFinding"
              },
              {
                "extension": [
                  {
                    "url": "code",
                    "valueCodeableConcept": {
                      "coding": [
                        {
                          "system": "http://fhir.healthcare.com/terminology",
                          "code": "20230483",
                          "display": "Polypectomy"
                        },
                        {
                          "system": "http://snomed.info/sct",
                          "code": "20230483",
                          "display": "Polypectomy"
                        }
                      ]
                    }
                  },
                  {
                    "url": "child",
                    "valueCodeableConcept": {
                      "coding": [
                        {
                          "system": "http://fhir.healthcare.com/terminology",
                          "code": "20230480",
                          "display": "Performed"
                        },
                        {
                          "system": "http://snomed.info/sct",
                          "code": "20230480",
                          "display": "Performed"
                        }
                      ]
                    }
                  }
                ],
                "url": "http://fhir.healthcare.com/StructureDefinition/observationNovaFinding"
              },
              {
                "extension": [
                  {
                    "url": "code",
                    "valueCodeableConcept": {
                      "coding": [
                        {
                          "system": "http://fhir.healthcare.com/terminology",
                          "code": "20230483",
                          "display": "Polypectomy"
                        },
                        {
                          "system": "http://snomed.info/sct",
                          "code": "20230483",
                          "display": "Polypectomy"
                        }
                      ]
                    }
                  },
                  {
                    "url": "child",
                    "valueCodeableConcept": {
                      "coding": [
                        {
                          "system": "http://fhir.healthcare.com/terminology",
                          "code": "20230480",
                          "display": "Performed"
                        },
                        {
                          "system": "http://snomed.info/sct",
                          "code": "20230480",
                          "display": "Performed"
                        }
                      ]
                    }
                  },
                  {
                    "url": "child",
                    "valueCodeableConcept": {
                      "coding": [
                        {
                          "system": "http://fhir.healthcare.com/terminology",
                          "code": "20230337",
                          "display": "Type"
                        },
                        {
                          "system": "http://snomed.info/sct",
                          "code": "20230337",
                          "display": "Type"
                        }
                      ]
                    }
                  },
                  {
                    "url": "child",
                    "valueCodeableConcept": {
                      "coding": [
                        {
                          "system": "http://fhir.healthcare.com/terminology",
                          "code": "20230292",
                          "display": "Hot snare"
                        },
                        {
                          "system": "http://snomed.info/sct",
                          "code": "20230292",
                          "display": "Hot snare"
                        }
                      ]
                    }
                  }
                ],
                "url": "http://fhir.healthcare.com/StructureDefinition/observationNovaFinding"
              },
              {
                "extension": [
                  {
                    "url": "code",
                    "valueCodeableConcept": {
                      "coding": [
                        {
                          "system": "http://fhir.healthcare.com/terminology",
                          "code": "20230483",
                          "display": "Polypectomy"
                        },
                        {
                          "system": "http://snomed.info/sct",
                          "code": "20230483",
                          "display": "Polypectomy"
                        }
                      ]
                    }
                  },
                  {
                    "url": "child",
                    "valueCodeableConcept": {
                      "coding": [
                        {
                          "system": "http://fhir.healthcare.com/terminology",
                          "code": "20230480",
                          "display": "Performed"
                        },
                        {
                          "system": "http://snomed.info/sct",
                          "code": "20230480",
                          "display": "Performed"
                        }
                      ]
                    }
                  },
                  {
                    "url": "child",
                    "valueCodeableConcept": {
                      "coding": [
                        {
                          "system": "http://fhir.healthcare.com/terminology",
                          "code": "20230506",
                          "display": "Injection solution"
                        },
                        {
                          "system": "http://snomed.info/sct",
                          "code": "20230506",
                          "display": "Injection solution"
                        }
                      ]
                    }
                  },
                  {
                    "url": "child",
                    "valueCodeableConcept": {
                      "coding": [
                        {
                          "system": "http://fhir.healthcare.com/terminology",
                          "code": "20230146",
                          "display": "Gelafundin"
                        },
                        {
                          "system": "http://snomed.info/sct",
                          "code": "20230146",
                          "display": "Gelafundin"
                        }
                      ]
                    }
                  }
                ],
                "url": "http://fhir.healthcare.com/StructureDefinition/observationNovaFinding"
              },
              {
                "extension": [
                  {
                    "url": "code",
                    "valueCodeableConcept": {
                      "coding": [
                        {
                          "system": "http://fhir.healthcare.com/terminology",
                          "code": "20230483",
                          "display": "Polypectomy"
                        },
                        {
                          "system": "http://snomed.info/sct",
                          "code": "20230483",
                          "display": "Polypectomy"
                        }
                      ]
                    }
                  },
                  {
                    "url": "child",
                    "valueCodeableConcept": {
                      "coding": [
                        {
                          "system": "http://fhir.healthcare.com/terminology",
                          "code": "20230480",
                          "display": "Performed"
                        },
                        {
                          "system": "http://snomed.info/sct",
                          "code": "20230480",
                          "display": "Performed"
                        }
                      ]
                    }
                  },
                  {
                    "url": "child",
                    "valueCodeableConcept": {
                      "coding": [
                        {
                          "system": "http://fhir.healthcare.com/terminology",
                          "code": "20230508",
                          "display": "Number of fragments"
                        },
                        {
                          "system": "http://snomed.info/sct",
                          "code": "20230508",
                          "display": "Number of fragments"
                        }
                      ]
                    }
                  },
                  {
                    "url": "child",
                    "valueCodeableConcept": {
                      "coding": [
                        {
                          "system": "http://fhir.healthcare.com/terminology",
                          "code": "20230166",
                          "display": "3"
                        },
                        {
                          "system": "http://snomed.info/sct",
                          "code": "20230166",
                          "display": "3"
                        }
                      ]
                    }
                  }
                ],
                "url": "http://fhir.healthcare.com/StructureDefinition/observationNovaFinding"
              },
              {
                "extension": [
                  {
                    "url": "code",
                    "valueCodeableConcept": {
                      "coding": [
                        {
                          "system": "http://fhir.healthcare.com/terminology",
                          "code": "20230483",
                          "display": "Polypectomy"
                        },
                        {
                          "system": "http://snomed.info/sct",
                          "code": "20230483",
                          "display": "Polypectomy"
                        }
                      ]
                    }
                  },
                  {
                    "url": "child",
                    "valueCodeableConcept": {
                      "coding": [
                        {
                          "system": "http://fhir.healthcare.com/terminology",
                          "code": "20230480",
                          "display": "Performed"
                        },
                        {
                          "system": "http://snomed.info/sct",
                          "code": "20230480",
                          "display": "Performed"
                        }
                      ]
                    }
                  },
                  {
                    "url": "child",
                    "valueCodeableConcept": {
                      "coding": [
                        {
                          "system": "http://fhir.healthcare.com/terminology",
                          "code": "20230509",
                          "display": "Retrieval"
                        },
                        {
                          "system": "http://snomed.info/sct",
                          "code": "20230509",
                          "display": "Retrieval"
                        }
                      ]
                    }
                  },
                  {
                    "url": "child",
                    "valueCodeableConcept": {
                      "coding": [
                        {
                          "system": "http://fhir.healthcare.com/terminology",
                          "code": "20230503",
                          "display": "Partially retrieved"
                        },
                        {
                          "system": "http://snomed.info/sct",
                          "code": "20230503",
                          "display": "Partially retrieved"
                        }
                      ]
                    }
                  }
                ],
                "url": "http://fhir.healthcare.com/StructureDefinition/observationNovaFinding"
              },
              {
                "extension": [
                  {
                    "url": "code",
                    "valueCodeableConcept": {
                      "coding": [
                        {
                          "system": "http://fhir.healthcare.com/terminology",
                          "code": "20230483",
                          "display": "Polypectomy"
                        },
                        {
                          "system": "http://snomed.info/sct",
                          "code": "20230483",
                          "display": "Polypectomy"
                        }
                      ]
                    }
                  },
                  {
                    "url": "child",
                    "valueCodeableConcept": {
                      "coding": [
                        {
                          "system": "http://fhir.healthcare.com/terminology",
                          "code": "20230480",
                          "display": "Performed"
                        },
                        {
                          "system": "http://snomed.info/sct",
                          "code": "20230480",
                          "display": "Performed"
                        }
                      ]
                    }
                  },
                  {
                    "url": "child",
                    "valueCodeableConcept": {
                      "coding": [
                        {
                          "system": "http://fhir.healthcare.com/terminology",
                          "code": "20230155",
                          "display": "Confidence level"
                        },
                        {
                          "system": "http://snomed.info/sct",
                          "code": "20230155",
                          "display": "Confidence level"
                        }
                      ]
                    }
                  },
                  {
                    "url": "child",
                    "valueCodeableConcept": {
                      "coding": [
                        {
                          "system": "http://fhir.healthcare.com/terminology",
                          "code": "20230276",
                          "display": "Low"
                        },
                        {
                          "system": "http://snomed.info/sct",
                          "code": "20230276",
                          "display": "Low"
                        }
                      ]
                    }
                  }
                ],
                "url": "http://fhir.healthcare.com/StructureDefinition/observationNovaFinding"
              },
              {
                "extension": [
                  {
                    "url": "code",
                    "valueCodeableConcept": {
                      "coding": [
                        {
                          "system": "http://fhir.healthcare.com/terminology",
                          "code": "20230483",
                          "display": "Polypectomy"
                        },
                        {
                          "system": "http://snomed.info/sct",
                          "code": "20230483",
                          "display": "Polypectomy"
                        }
                      ]
                    }
                  },
                  {
                    "url": "child",
                    "valueCodeableConcept": {
                      "coding": [
                        {
                          "system": "http://fhir.healthcare.com/terminology",
                          "code": "20230480",
                          "display": "Performed"
                        },
                        {
                          "system": "http://snomed.info/sct",
                          "code": "20230480",
                          "display": "Performed"
                        }
                      ]
                    }
                  },
                  {
                    "url": "child",
                    "valueCodeableConcept": {
                      "coding": [
                        {
                          "system": "http://fhir.healthcare.com/terminology",
                          "code": "20230535",
                          "display": "Polypectomy container"
                        },
                        {
                          "system": "http://snomed.info/sct",
                          "code": "20230535",
                          "display": "Polypectomy container"
                        }
                      ]
                    }
                  },
                  {
                    "url": "child",
                    "valueCodeableConcept": {
                      "coding": [
                        {
                          "system": "http://fhir.healthcare.com/terminology",
                          "code": "20230064",
                          "display": "Container 3"
                        },
                        {
                          "system": "http://snomed.info/sct",
                          "code": "20230064",
                          "display": "Container 3"
                        }
                      ]
                    }
                  }
                ],
                "url": "http://fhir.healthcare.com/StructureDefinition/observationNovaFinding"
              },
              {
                "extension": [
                  {
                    "url": "code",
                    "valueCodeableConcept": {
                      "coding": [
                        {
                          "system": "http://fhir.healthcare.com/terminology",
                          "code": "20230483",
                          "display": "Polypectomy"
                        },
                        {
                          "system": "http://snomed.info/sct",
                          "code": "20230483",
                          "display": "Polypectomy"
                        }
                      ]
                    }
                  },
                  {
                    "url": "child",
                    "valueCodeableConcept": {
                      "coding": [
                        {
                          "system": "http://fhir.healthcare.com/terminology",
                          "code": "20230480",
                          "display": "Performed"
                        },
                        {
                          "system": "http://snomed.info/sct",
                          "code": "20230480",
                          "display": "Performed"
                        }
                      ]
                    }
                  },
                  {
                    "url": "child",
                    "valueCodeableConcept": {
                      "coding": [
                        {
                          "system": "http://fhir.healthcare.com/terminology",
                          "code": "20230190",
                          "display": "Complications"
                        },
                        {
                          "system": "http://snomed.info/sct",
                          "code": "20230190",
                          "display": "Complications"
                        }
                      ]
                    }
                  },
                  {
                    "url": "child",
                    "valueCodeableConcept": {
                      "coding": [
                        {
                          "system": "http://fhir.healthcare.com/terminology",
                          "code": "20230058",
                          "display": "Equipment Failure"
                        },
                        {
                          "system": "http://snomed.info/sct",
                          "code": "20230058",
                          "display": "Equipment Failure"
                        }
                      ]
                    }
                  }
                ],
                "url": "http://fhir.healthcare.com/StructureDefinition/observationNovaFinding"
              },
              {
                "extension": [
                  {
                    "url": "code",
                    "valueCodeableConcept": {
                      "coding": [
                        {
                          "system": "http://fhir.healthcare.com/terminology",
                          "code": "20230483",
                          "display": "Polypectomy"
                        },
                        {
                          "system": "http://snomed.info/sct",
                          "code": "20230483",
                          "display": "Polypectomy"
                        }
                      ]
                    }
                  },
                  {
                    "url": "child",
                    "valueCodeableConcept": {
                      "coding": [
                        {
                          "system": "http://fhir.healthcare.com/terminology",
                          "code": "20230480",
                          "display": "Performed"
                        },
                        {
                          "system": "http://snomed.info/sct",
                          "code": "20230480",
                          "display": "Performed"
                        }
                      ]
                    }
                  },
                  {
                    "url": "child",
                    "valueCodeableConcept": {
                      "coding": [
                        {
                          "system": "http://fhir.healthcare.com/terminology",
                          "code": "20230781",
                          "display": "Complication treatment"
                        },
                        {
                          "system": "http://snomed.info/sct",
                          "code": "20230781",
                          "display": "Complication treatment"
                        }
                      ]
                    }
                  },
                  {
                    "url": "child",
                    "valueCodeableConcept": {
                      "coding": [
                        {
                          "system": "http://fhir.healthcare.com/terminology",
                          "code": "20230786",
                          "display": "Colon Prosthesis (placement)"
                        },
                        {
                          "system": "http://snomed.info/sct",
                          "code": "20230786",
                          "display": "Colon Prosthesis (placement)"
                        }
                      ]
                    }
                  }
                ],
                "url": "http://fhir.healthcare.com/StructureDefinition/observationNovaFinding"
              },
              {
                "extension": [
                  {
                    "url": "code",
                    "valueCodeableConcept": {
                      "coding": [
                        {
                          "system": "http://fhir.healthcare.com/terminology",
                          "code": "20230481",
                          "display": "Tattoo"
                        },
                        {
                          "system": "http://snomed.info/sct",
                          "code": "20230481",
                          "display": "Tattoo"
                        }
                      ]
                    }
                  },
                  {
                    "url": "child",
                    "valueCodeableConcept": {
                      "coding": [
                        {
                          "system": "http://fhir.healthcare.com/terminology",
                          "code": "20230487",
                          "display": "Not created"
                        },
                        {
                          "system": "http://snomed.info/sct",
                          "code": "20230487",
                          "display": "Not created"
                        }
                      ]
                    }
                  }
                ],
                "url": "http://fhir.healthcare.com/StructureDefinition/observationNovaFinding"
              },
              {
                "extension": [
                  {
                    "url": "code",
                    "valueCodeableConcept": {
                      "coding": [
                        {
                          "system": "http://fhir.healthcare.com/terminology",
                          "code": "20230477",
                          "display": "Biopsy container"
                        },
                        {
                          "system": "http://snomed.info/sct",
                          "code": "20230477",
                          "display": "Biopsy container"
                        }
                      ]
                    }
                  },
                  {
                    "url": "child",
                    "valueCodeableConcept": {
                      "coding": [
                        {
                          "system": "http://fhir.healthcare.com/terminology",
                          "code": "20230064",
                          "display": "Container 3"
                        },
                        {
                          "system": "http://snomed.info/sct",
                          "code": "20230064",
                          "display": "Container 3"
                        }
                      ]
                    }
                  }
                ],
                "url": "http://fhir.healthcare.com/StructureDefinition/observationNovaFinding"
              }
            ],
            "code": {
              "coding": [
                {
                  "system": "http://fhir.healthcare.com/terminology",
                  "code": "20230006",
                  "display": "Findings"
                },
                {
                  "system": "http://fhir.healthcare.com/terminology",
                  "code": "20230006",
                  "display": "Findings"
                }
              ],
              "text": "Findings"
            }
          },
          {
            "extension": [
              {
                "extension": [
                  {
                    "url": "code",
                    "valueCodeableConcept": {
                      "coding": [
                        {
                          "system": "http://fhir.healthcare.com/terminology",
                          "code": "20230484",
                          "display": "Polyp"
                        },
                        {
                          "system": "http://snomed.info/sct",
                          "code": "20230484",
                          "display": "Polyp"
                        }
                      ]
                    }
                  },
                  {
                    "url": "occurrence",
                    "valueUnsignedInt": 4
                  },
                  {
                    "url": "position",
                    "valueUnsignedInt": 4
                  }
                ],
                "url": "http://fhir.healthcare.com/StructureDefinition/observationNovaFinding"
              },
              {
                "extension": [
                  {
                    "url": "code",
                    "valueCodeableConcept": {
                      "coding": [
                        {
                          "system": "http://fhir.healthcare.com/terminology",
                          "code": "20230323",
                          "display": "Location"
                        },
                        {
                          "system": "http://snomed.info/sct",
                          "code": "20230323",
                          "display": "Location"
                        }
                      ]
                    }
                  },
                  {
                    "url": "child",
                    "valueCodeableConcept": {
                      "coding": [
                        {
                          "system": "http://fhir.healthcare.com/terminology",
                          "code": "20230223",
                          "display": "Sigmoid"
                        },
                        {
                          "system": "http://snomed.info/sct",
                          "code": "20230223",
                          "display": "Sigmoid"
                        }
                      ]
                    }
                  }
                ],
                "url": "http://fhir.healthcare.com/StructureDefinition/observationNovaFinding"
              },
              {
                "extension": [
                  {
                    "url": "code",
                    "valueCodeableConcept": {
                      "coding": [
                        {
                          "system": "http://fhir.healthcare.com/terminology",
                          "code": "20230326",
                          "display": "Size"
                        },
                        {
                          "system": "http://snomed.info/sct",
                          "code": "20230326",
                          "display": "Size"
                        }
                      ]
                    }
                  },
                  {
                    "url": "child",
                    "valueCodeableConcept": {
                      "coding": [
                        {
                          "system": "http://fhir.healthcare.com/terminology",
                          "code": "20230557",
                          "display": "55 mm"
                        },
                        {
                          "system": "http://snomed.info/sct",
                          "code": "20230557",
                          "display": "55 mm"
                        }
                      ]
                    }
                  }
                ],
                "url": "http://fhir.healthcare.com/StructureDefinition/observationNovaFinding"
              },
              {
                "extension": [
                  {
                    "url": "code",
                    "valueCodeableConcept": {
                      "coding": [
                        {
                          "system": "http://fhir.healthcare.com/terminology",
                          "code": "20230027",
                          "display": "Paris classification"
                        },
                        {
                          "system": "http://snomed.info/sct",
                          "code": "20230027",
                          "display": "Paris classification"
                        }
                      ]
                    }
                  },
                  {
                    "url": "child",
                    "valueCodeableConcept": {
                      "coding": [
                        {
                          "system": "http://fhir.healthcare.com/terminology",
                          "code": "20230052",
                          "display": "LST-NG Flat elevated (IIa)"
                        },
                        {
                          "system": "http://snomed.info/sct",
                          "code": "20230052",
                          "display": "LST-NG Flat elevated (IIa)"
                        }
                      ]
                    }
                  }
                ],
                "url": "http://fhir.healthcare.com/StructureDefinition/observationNovaFinding"
              },
              {
                "extension": [
                  {
                    "url": "code",
                    "valueCodeableConcept": {
                      "coding": [
                        {
                          "system": "http://fhir.healthcare.com/terminology",
                          "code": "20230481",
                          "display": "Tattoo"
                        },
                        {
                          "system": "http://snomed.info/sct",
                          "code": "20230481",
                          "display": "Tattoo"
                        }
                      ]
                    }
                  },
                  {
                    "url": "child",
                    "valueCodeableConcept": {
                      "coding": [
                        {
                          "system": "http://fhir.healthcare.com/terminology",
                          "code": "20230378",
                          "display": "Tattoo created"
                        },
                        {
                          "system": "http://snomed.info/sct",
                          "code": "20230378",
                          "display": "Tattoo created"
                        }
                      ]
                    }
                  }
                ],
                "url": "http://fhir.healthcare.com/StructureDefinition/observationNovaFinding"
              },
              {
                "extension": [
                  {
                    "url": "code",
                    "valueCodeableConcept": {
                      "coding": [
                        {
                          "system": "http://fhir.healthcare.com/terminology",
                          "code": "20230477",
                          "display": "Biopsy container"
                        },
                        {
                          "system": "http://snomed.info/sct",
                          "code": "20230477",
                          "display": "Biopsy container"
                        }
                      ]
                    }
                  },
                  {
                    "url": "child",
                    "valueCodeableConcept": {
                      "coding": [
                        {
                          "system": "http://fhir.healthcare.com/terminology",
                          "code": "20230064",
                          "display": "Container 3"
                        },
                        {
                          "system": "http://snomed.info/sct",
                          "code": "20230064",
                          "display": "Container 3"
                        }
                      ]
                    }
                  }
                ],
                "url": "http://fhir.healthcare.com/StructureDefinition/observationNovaFinding"
              }
            ],
            "code": {
              "coding": [
                {
                  "system": "http://fhir.healthcare.com/terminology",
                  "code": "20230006",
                  "display": "Findings"
                },
                {
                  "system": "http://fhir.healthcare.com/terminology",
                  "code": "20230006",
                  "display": "Findings"
                }
              ],
              "text": "Findings"
            }
          }
        ]
      },
      "request": {
        "method": "POST",
        "url": "Observation"
      }
    },
    {
      "fullUrl": "urn:uuid:342572d5-6809-4446-aeb7-b13ef137fdea",
      "resource": {
        "resourceType": "Observation",
        "id": "342572d5-6809-4446-aeb7-b13ef137fdea",
        "meta": {
          "versionId": "15",
          "lastUpdated": "2023-09-11T20:05:01.188+00:00"
        },
        "extension": [
          {
            "extension": [
              {
                "url": "saved",
                "valueBoolean": true
              },
              {
                "url": "settings",
                "valueString": "[{\"id\":\"20230759,1\",\"type\":\"list-item\",\"children\":[{\"id\":\"20230759,1-paragraph-root\",\"type\":\"paragraph\",\"children\":[{\"text\":\"\"},{\"id\":\"20230759\",\"type\":\"badge\",\"children\":[{\"bold\":false,\"id\":\"20230759-text\",\"text\":\"Hemorrhage\"}]},{\"text\":\"\"}]}]}]"
              }
            ],
            "url": "http://fhir.healthcare.com/StructureDefinition/observationUiState"
          }
        ],
        "basedOn": [
          {
            "reference": "urn:uuid:e1f552e5-ae82-4956-bb7f-ce504e3b7eef"
          }
        ],
        "status": "final",
        "code": {
          "coding": [
            {
              "system": "http://fhir.healthcare.com/terminology",
              "code": "20230190",
              "display": "Complications"
            },
            {
              "system": "http://fhir.healthcare.com/terminology",
              "code": "20230190",
              "display": "Complications"
            }
          ],
          "text": "Complications"
        },
        "valueString": "#lI$Hemorrhage",
        "component": [
          {
            "extension": [
              {
                "extension": [
                  {
                    "url": "code",
                    "valueCodeableConcept": {
                      "coding": [
                        {
                          "system": "http://fhir.healthcare.com/terminology",
                          "code": "20230759",
                          "display": "Hemorrhage"
                        },
                        {
                          "system": "http://snomed.info/sct",
                          "code": "20230759",
                          "display": "Hemorrhage"
                        }
                      ]
                    }
                  },
                  {
                    "url": "occurrence",
                    "valueUnsignedInt": 1
                  },
                  {
                    "url": "position",
                    "valueUnsignedInt": 1
                  }
                ],
                "url": "http://fhir.healthcare.com/StructureDefinition/observationNovaFinding"
              }
            ],
            "code": {
              "coding": [
                {
                  "system": "http://fhir.healthcare.com/terminology",
                  "code": "20230190",
                  "display": "Complications"
                },
                {
                  "system": "http://fhir.healthcare.com/terminology",
                  "code": "20230190",
                  "display": "Complications"
                }
              ],
              "text": "Complications"
            }
          }
        ]
      },
      "request": {
        "method": "POST",
        "url": "Observation"
      }
    },
    {
      "fullUrl": "urn:uuid:32fdf464-72d6-420e-987e-01603b9b44ae",
      "resource": {
        "resourceType": "Observation",
        "id": "32fdf464-72d6-420e-987e-01603b9b44ae",
        "meta": {
          "versionId": "35",
          "lastUpdated": "2023-09-11T20:05:01.266+00:00"
        },
        "extension": [
          {
            "extension": [
              {
                "url": "saved",
                "valueBoolean": false
              },
              {
                "url": "settings",
                "valueString": "[{\"type\":\"paragraph\",\"children\":[{\"text\":\"\"}]}]"
              }
            ],
            "url": "http://fhir.healthcare.com/StructureDefinition/observationUiState"
          }
        ],
        "basedOn": [
          {
            "reference": "urn:uuid:e1f552e5-ae82-4956-bb7f-ce504e3b7eef"
          }
        ],
        "status": "final",
        "code": {
          "coding": [
            {
              "system": "http://fhir.healthcare.com/terminology",
              "code": "20230219",
              "display": "Summary"
            },
            {
              "system": "http://fhir.healthcare.com/terminology",
              "code": "20230219",
              "display": "Summary"
            }
          ],
          "text": "Summary"
        }
      },
      "request": {
        "method": "POST",
        "url": "Observation"
      }
    },
    {
      "fullUrl": "urn:uuid:44fde6e9-8b6f-4b32-8b2e-79c5359658ca",
      "resource": {
        "resourceType": "Observation",
        "id": "44fde6e9-8b6f-4b32-8b2e-79c5359658ca",
        "meta": {
          "versionId": "38",
          "lastUpdated": "2023-09-11T20:05:01.328+00:00"
        },
        "extension": [
          {
            "extension": [
              {
                "url": "saved",
                "valueBoolean": false
              },
              {
                "url": "settings",
                "valueString": "[{\"type\":\"paragraph\",\"children\":[{\"text\":\"\"}]}]"
              }
            ],
            "url": "http://fhir.healthcare.com/StructureDefinition/observationUiState"
          }
        ],
        "basedOn": [
          {
            "reference": "urn:uuid:e1f552e5-ae82-4956-bb7f-ce504e3b7eef"
          }
        ],
        "status": "final",
        "code": {
          "coding": [
            {
              "system": "http://fhir.healthcare.com/terminology",
              "code": "20230012",
              "display": "Pathology"
            },
            {
              "system": "http://fhir.healthcare.com/terminology",
              "code": "20230012",
              "display": "Pathology"
            }
          ],
          "text": "Pathology"
        },
        "component": [
          {
            "extension": [
              {
                "extension": [
                  {
                    "url": "code",
                    "valueCodeableConcept": {
                      "coding": [
                        {
                          "system": "http://fhir.healthcare.com/terminology",
                          "code": "20230484",
                          "display": "Polyp"
                        },
                        {
                          "system": "http://snomed.info/sct",
                          "code": "20230484",
                          "display": "Polyp"
                        }
                      ]
                    }
                  },
                  {
                    "url": "occurrence",
                    "valueUnsignedInt": 1
                  },
                  {
                    "url": "position",
                    "valueUnsignedInt": 1
                  },
                  {
                    "url": "text",
                    "valueString": "Polyp, Splenic flexure, 5 mm, Completely flat (IIb), Not performed, Not performed, Not created"
                  }
                ],
                "url": "http://fhir.healthcare.com/StructureDefinition/observationNovaFinding"
              },
              {
                "extension": [
                  {
                    "url": "code",
                    "valueCodeableConcept": {
                      "coding": [
                        {
                          "system": "http://fhir.healthcare.com/terminology",
                          "code": "20230323",
                          "display": "Location"
                        },
                        {
                          "system": "http://snomed.info/sct",
                          "code": "20230323",
                          "display": "Location"
                        }
                      ]
                    }
                  },
                  {
                    "url": "child",
                    "valueCodeableConcept": {
                      "coding": [
                        {
                          "system": "http://fhir.healthcare.com/terminology",
                          "code": "20230355",
                          "display": "Splenic flexure"
                        },
                        {
                          "system": "http://snomed.info/sct",
                          "code": "20230355",
                          "display": "Splenic flexure"
                        }
                      ]
                    }
                  }
                ],
                "url": "http://fhir.healthcare.com/StructureDefinition/observationNovaFinding"
              },
              {
                "extension": [
                  {
                    "url": "code",
                    "valueCodeableConcept": {
                      "coding": [
                        {
                          "system": "http://fhir.healthcare.com/terminology",
                          "code": "20230326",
                          "display": "Size"
                        },
                        {
                          "system": "http://snomed.info/sct",
                          "code": "20230326",
                          "display": "Size"
                        }
                      ]
                    }
                  },
                  {
                    "url": "child",
                    "valueCodeableConcept": {
                      "coding": [
                        {
                          "system": "http://fhir.healthcare.com/terminology",
                          "code": "20230514",
                          "display": "5 mm"
                        },
                        {
                          "system": "http://snomed.info/sct",
                          "code": "20230514",
                          "display": "5 mm"
                        }
                      ]
                    }
                  }
                ],
                "url": "http://fhir.healthcare.com/StructureDefinition/observationNovaFinding"
              },
              {
                "extension": [
                  {
                    "url": "code",
                    "valueCodeableConcept": {
                      "coding": [
                        {
                          "system": "http://fhir.healthcare.com/terminology",
                          "code": "20230027",
                          "display": "Paris classification"
                        },
                        {
                          "system": "http://snomed.info/sct",
                          "code": "20230027",
                          "display": "Paris classification"
                        }
                      ]
                    }
                  },
                  {
                    "url": "child",
                    "valueCodeableConcept": {
                      "coding": [
                        {
                          "system": "http://fhir.healthcare.com/terminology",
                          "code": "20230046",
                          "display": "Completely flat (IIb)"
                        },
                        {
                          "system": "http://snomed.info/sct",
                          "code": "20230046",
                          "display": "Completely flat (IIb)"
                        }
                      ]
                    }
                  }
                ],
                "url": "http://fhir.healthcare.com/StructureDefinition/observationNovaFinding"
              },
              {
                "extension": [
                  {
                    "url": "code",
                    "valueCodeableConcept": {
                      "coding": [
                        {
                          "system": "http://fhir.healthcare.com/terminology",
                          "code": "20230482",
                          "display": "Optical diagnosis"
                        },
                        {
                          "system": "http://snomed.info/sct",
                          "code": "20230482",
                          "display": "Optical diagnosis"
                        }
                      ]
                    }
                  },
                  {
                    "url": "child",
                    "valueCodeableConcept": {
                      "coding": [
                        {
                          "system": "http://fhir.healthcare.com/terminology",
                          "code": "20230486",
                          "display": "Not performed"
                        },
                        {
                          "system": "http://snomed.info/sct",
                          "code": "20230486",
                          "display": "Not performed"
                        }
                      ]
                    }
                  }
                ],
                "url": "http://fhir.healthcare.com/StructureDefinition/observationNovaFinding"
              },
              {
                "extension": [
                  {
                    "url": "code",
                    "valueCodeableConcept": {
                      "coding": [
                        {
                          "system": "http://fhir.healthcare.com/terminology",
                          "code": "20230483",
                          "display": "Polypectomy"
                        },
                        {
                          "system": "http://snomed.info/sct",
                          "code": "20230483",
                          "display": "Polypectomy"
                        }
                      ]
                    }
                  },
                  {
                    "url": "child",
                    "valueCodeableConcept": {
                      "coding": [
                        {
                          "system": "http://fhir.healthcare.com/terminology",
                          "code": "20230486",
                          "display": "Not performed"
                        },
                        {
                          "system": "http://snomed.info/sct",
                          "code": "20230486",
                          "display": "Not performed"
                        }
                      ]
                    }
                  }
                ],
                "url": "http://fhir.healthcare.com/StructureDefinition/observationNovaFinding"
              },
              {
                "extension": [
                  {
                    "url": "code",
                    "valueCodeableConcept": {
                      "coding": [
                        {
                          "system": "http://fhir.healthcare.com/terminology",
                          "code": "20230481",
                          "display": "Tattoo"
                        },
                        {
                          "system": "http://snomed.info/sct",
                          "code": "20230481",
                          "display": "Tattoo"
                        }
                      ]
                    }
                  },
                  {
                    "url": "child",
                    "valueCodeableConcept": {
                      "coding": [
                        {
                          "system": "http://fhir.healthcare.com/terminology",
                          "code": "20230487",
                          "display": "Not created"
                        },
                        {
                          "system": "http://snomed.info/sct",
                          "code": "20230487",
                          "display": "Not created"
                        }
                      ]
                    }
                  }
                ],
                "url": "http://fhir.healthcare.com/StructureDefinition/observationNovaFinding"
              },
              {
                "extension": [
                  {
                    "url": "code",
                    "valueCodeableConcept": {
                      "coding": [
                        {
                          "system": "http://fhir.healthcare.com/terminology",
                          "code": "20230477",
                          "display": "Biopsy container"
                        },
                        {
                          "system": "http://snomed.info/sct",
                          "code": "20230477",
                          "display": "Biopsy container"
                        }
                      ]
                    }
                  },
                  {
                    "url": "child",
                    "valueCodeableConcept": {
                      "coding": [
                        {
                          "system": "http://fhir.healthcare.com/terminology",
                          "code": "20230063",
                          "display": "Container 1"
                        },
                        {
                          "system": "http://snomed.info/sct",
                          "code": "20230063",
                          "display": "Container 1"
                        }
                      ]
                    }
                  }
                ],
                "url": "http://fhir.healthcare.com/StructureDefinition/observationNovaFinding"
              }
            ],
            "code": {
              "coding": [
                {
                  "system": "http://fhir.healthcare.com/terminology",
                  "code": "20230012",
                  "display": "Pathology"
                },
                {
                  "system": "http://fhir.healthcare.com/terminology",
                  "code": "20230012",
                  "display": "Pathology"
                }
              ],
              "text": "Pathology"
            }
          },
          {
            "extension": [
              {
                "extension": [
                  {
                    "url": "code",
                    "valueCodeableConcept": {
                      "coding": [
                        {
                          "system": "http://fhir.healthcare.com/terminology",
                          "code": "20230014",
                          "display": "General Biopsy"
                        },
                        {
                          "system": "http://snomed.info/sct",
                          "code": "20230014",
                          "display": "General Biopsy"
                        }
                      ]
                    }
                  },
                  {
                    "url": "occurrence",
                    "valueUnsignedInt": 2
                  },
                  {
                    "url": "position",
                    "valueUnsignedInt": 2
                  },
                  {
                    "url": "text",
                    "valueString": "General Biopsy, Sigmoid, 2, Exploratory"
                  }
                ],
                "url": "http://fhir.healthcare.com/StructureDefinition/observationNovaFinding"
              },
              {
                "extension": [
                  {
                    "url": "code",
                    "valueCodeableConcept": {
                      "coding": [
                        {
                          "system": "http://fhir.healthcare.com/terminology",
                          "code": "20230323",
                          "display": "Location"
                        },
                        {
                          "system": "http://snomed.info/sct",
                          "code": "20230323",
                          "display": "Location"
                        }
                      ]
                    }
                  },
                  {
                    "url": "child",
                    "valueCodeableConcept": {
                      "coding": [
                        {
                          "system": "http://fhir.healthcare.com/terminology",
                          "code": "20230223",
                          "display": "Sigmoid"
                        },
                        {
                          "system": "http://snomed.info/sct",
                          "code": "20230223",
                          "display": "Sigmoid"
                        }
                      ]
                    }
                  }
                ],
                "url": "http://fhir.healthcare.com/StructureDefinition/observationNovaFinding"
              },
              {
                "extension": [
                  {
                    "url": "code",
                    "valueCodeableConcept": {
                      "coding": [
                        {
                          "system": "http://fhir.healthcare.com/terminology",
                          "code": "20230342",
                          "display": "Number of biopsies"
                        },
                        {
                          "system": "http://snomed.info/sct",
                          "code": "20230342",
                          "display": "Number of biopsies"
                        }
                      ]
                    }
                  },
                  {
                    "url": "child",
                    "valueCodeableConcept": {
                      "coding": [
                        {
                          "system": "http://fhir.healthcare.com/terminology",
                          "code": "20230165",
                          "display": "2"
                        },
                        {
                          "system": "http://snomed.info/sct",
                          "code": "20230165",
                          "display": "2"
                        }
                      ]
                    }
                  }
                ],
                "url": "http://fhir.healthcare.com/StructureDefinition/observationNovaFinding"
              },
              {
                "extension": [
                  {
                    "url": "code",
                    "valueCodeableConcept": {
                      "coding": [
                        {
                          "system": "http://fhir.healthcare.com/terminology",
                          "code": "20230242",
                          "display": "Reason"
                        },
                        {
                          "system": "http://snomed.info/sct",
                          "code": "20230242",
                          "display": "Reason"
                        }
                      ]
                    }
                  },
                  {
                    "url": "child",
                    "valueCodeableConcept": {
                      "coding": [
                        {
                          "system": "http://fhir.healthcare.com/terminology",
                          "code": "20230437",
                          "display": "Exploratory"
                        },
                        {
                          "system": "http://snomed.info/sct",
                          "code": "20230437",
                          "display": "Exploratory"
                        }
                      ]
                    }
                  }
                ],
                "url": "http://fhir.healthcare.com/StructureDefinition/observationNovaFinding"
              },
              {
                "extension": [
                  {
                    "url": "code",
                    "valueCodeableConcept": {
                      "coding": [
                        {
                          "system": "http://fhir.healthcare.com/terminology",
                          "code": "20230184",
                          "display": "Container"
                        },
                        {
                          "system": "http://snomed.info/sct",
                          "code": "20230184",
                          "display": "Container"
                        }
                      ]
                    }
                  },
                  {
                    "url": "child",
                    "valueCodeableConcept": {
                      "coding": [
                        {
                          "system": "http://fhir.healthcare.com/terminology",
                          "code": "20230007",
                          "display": "Container 2"
                        },
                        {
                          "system": "http://snomed.info/sct",
                          "code": "20230007",
                          "display": "Container 2"
                        }
                      ]
                    }
                  }
                ],
                "url": "http://fhir.healthcare.com/StructureDefinition/observationNovaFinding"
              }
            ],
            "code": {
              "coding": [
                {
                  "system": "http://fhir.healthcare.com/terminology",
                  "code": "20230012",
                  "display": "Pathology"
                },
                {
                  "system": "http://fhir.healthcare.com/terminology",
                  "code": "20230012",
                  "display": "Pathology"
                }
              ],
              "text": "Pathology"
            }
          },
          {
            "extension": [
              {
                "extension": [
                  {
                    "url": "code",
                    "valueCodeableConcept": {
                      "coding": [
                        {
                          "system": "http://fhir.healthcare.com/terminology",
                          "code": "20230484",
                          "display": "Polyp"
                        },
                        {
                          "system": "http://snomed.info/sct",
                          "code": "20230484",
                          "display": "Polyp"
                        }
                      ]
                    }
                  },
                  {
                    "url": "occurrence",
                    "valueUnsignedInt": 3
                  },
                  {
                    "url": "position",
                    "valueUnsignedInt": 3
                  },
                  {
                    "url": "text",
                    "valueString": "Polyp, Anus, 5 mm, LST-NG Pseudodepressed (IIc+IIa/IIa+IIc), Performed, Performed, Not created"
                  }
                ],
                "url": "http://fhir.healthcare.com/StructureDefinition/observationNovaFinding"
              },
              {
                "extension": [
                  {
                    "url": "code",
                    "valueCodeableConcept": {
                      "coding": [
                        {
                          "system": "http://fhir.healthcare.com/terminology",
                          "code": "20230323",
                          "display": "Location"
                        },
                        {
                          "system": "http://snomed.info/sct",
                          "code": "20230323",
                          "display": "Location"
                        }
                      ]
                    }
                  },
                  {
                    "url": "child",
                    "valueCodeableConcept": {
                      "coding": [
                        {
                          "system": "http://fhir.healthcare.com/terminology",
                          "code": "20230356",
                          "display": "Anus"
                        },
                        {
                          "system": "http://snomed.info/sct",
                          "code": "20230356",
                          "display": "Anus"
                        }
                      ]
                    }
                  }
                ],
                "url": "http://fhir.healthcare.com/StructureDefinition/observationNovaFinding"
              },
              {
                "extension": [
                  {
                    "url": "code",
                    "valueCodeableConcept": {
                      "coding": [
                        {
                          "system": "http://fhir.healthcare.com/terminology",
                          "code": "20230326",
                          "display": "Size"
                        },
                        {
                          "system": "http://snomed.info/sct",
                          "code": "20230326",
                          "display": "Size"
                        }
                      ]
                    }
                  },
                  {
                    "url": "child",
                    "valueCodeableConcept": {
                      "coding": [
                        {
                          "system": "http://fhir.healthcare.com/terminology",
                          "code": "20230514",
                          "display": "5 mm"
                        },
                        {
                          "system": "http://snomed.info/sct",
                          "code": "20230514",
                          "display": "5 mm"
                        }
                      ]
                    }
                  }
                ],
                "url": "http://fhir.healthcare.com/StructureDefinition/observationNovaFinding"
              },
              {
                "extension": [
                  {
                    "url": "code",
                    "valueCodeableConcept": {
                      "coding": [
                        {
                          "system": "http://fhir.healthcare.com/terminology",
                          "code": "20230027",
                          "display": "Paris classification"
                        },
                        {
                          "system": "http://snomed.info/sct",
                          "code": "20230027",
                          "display": "Paris classification"
                        }
                      ]
                    }
                  },
                  {
                    "url": "child",
                    "valueCodeableConcept": {
                      "coding": [
                        {
                          "system": "http://fhir.healthcare.com/terminology",
                          "code": "20230053",
                          "display": "LST-NG Pseudodepressed (IIc+IIa/IIa+IIc)"
                        },
                        {
                          "system": "http://snomed.info/sct",
                          "code": "20230053",
                          "display": "LST-NG Pseudodepressed (IIc+IIa/IIa+IIc)"
                        }
                      ]
                    }
                  }
                ],
                "url": "http://fhir.healthcare.com/StructureDefinition/observationNovaFinding"
              },
              {
                "extension": [
                  {
                    "url": "code",
                    "valueCodeableConcept": {
                      "coding": [
                        {
                          "system": "http://fhir.healthcare.com/terminology",
                          "code": "20230482",
                          "display": "Optical diagnosis"
                        },
                        {
                          "system": "http://snomed.info/sct",
                          "code": "20230482",
                          "display": "Optical diagnosis"
                        }
                      ]
                    }
                  },
                  {
                    "url": "child",
                    "valueCodeableConcept": {
                      "coding": [
                        {
                          "system": "http://fhir.healthcare.com/terminology",
                          "code": "20230480",
                          "display": "Performed"
                        },
                        {
                          "system": "http://snomed.info/sct",
                          "code": "20230480",
                          "display": "Performed"
                        }
                      ]
                    }
                  }
                ],
                "url": "http://fhir.healthcare.com/StructureDefinition/observationNovaFinding"
              },
              {
                "extension": [
                  {
                    "url": "code",
                    "valueCodeableConcept": {
                      "coding": [
                        {
                          "system": "http://fhir.healthcare.com/terminology",
                          "code": "20230482",
                          "display": "Optical diagnosis"
                        },
                        {
                          "system": "http://snomed.info/sct",
                          "code": "20230482",
                          "display": "Optical diagnosis"
                        }
                      ]
                    }
                  },
                  {
                    "url": "child",
                    "valueCodeableConcept": {
                      "coding": [
                        {
                          "system": "http://fhir.healthcare.com/terminology",
                          "code": "20230480",
                          "display": "Performed"
                        },
                        {
                          "system": "http://snomed.info/sct",
                          "code": "20230480",
                          "display": "Performed"
                        }
                      ]
                    }
                  },
                  {
                    "url": "child",
                    "valueCodeableConcept": {
                      "coding": [
                        {
                          "system": "http://fhir.healthcare.com/terminology",
                          "code": "20230144",
                          "display": "Macroscopic aspect"
                        },
                        {
                          "system": "http://snomed.info/sct",
                          "code": "20230144",
                          "display": "Macroscopic aspect"
                        }
                      ]
                    }
                  },
                  {
                    "url": "child",
                    "valueCodeableConcept": {
                      "coding": [
                        {
                          "system": "http://fhir.healthcare.com/terminology",
                          "code": "20230233",
                          "display": "Sessile serrated polyp"
                        },
                        {
                          "system": "http://snomed.info/sct",
                          "code": "20230233",
                          "display": "Sessile serrated polyp"
                        }
                      ]
                    }
                  }
                ],
                "url": "http://fhir.healthcare.com/StructureDefinition/observationNovaFinding"
              },
              {
                "extension": [
                  {
                    "url": "code",
                    "valueCodeableConcept": {
                      "coding": [
                        {
                          "system": "http://fhir.healthcare.com/terminology",
                          "code": "20230482",
                          "display": "Optical diagnosis"
                        },
                        {
                          "system": "http://snomed.info/sct",
                          "code": "20230482",
                          "display": "Optical diagnosis"
                        }
                      ]
                    }
                  },
                  {
                    "url": "child",
                    "valueCodeableConcept": {
                      "coding": [
                        {
                          "system": "http://fhir.healthcare.com/terminology",
                          "code": "20230480",
                          "display": "Performed"
                        },
                        {
                          "system": "http://snomed.info/sct",
                          "code": "20230480",
                          "display": "Performed"
                        }
                      ]
                    }
                  },
                  {
                    "url": "child",
                    "valueCodeableConcept": {
                      "coding": [
                        {
                          "system": "http://fhir.healthcare.com/terminology",
                          "code": "20230026",
                          "display": "NICE"
                        },
                        {
                          "system": "http://snomed.info/sct",
                          "code": "20230026",
                          "display": "NICE"
                        }
                      ]
                    }
                  },
                  {
                    "url": "child",
                    "valueCodeableConcept": {
                      "coding": [
                        {
                          "system": "http://fhir.healthcare.com/terminology",
                          "code": "20230037",
                          "display": "NICE 2"
                        },
                        {
                          "system": "http://snomed.info/sct",
                          "code": "20230037",
                          "display": "NICE 2"
                        }
                      ]
                    }
                  }
                ],
                "url": "http://fhir.healthcare.com/StructureDefinition/observationNovaFinding"
              },
              {
                "extension": [
                  {
                    "url": "code",
                    "valueCodeableConcept": {
                      "coding": [
                        {
                          "system": "http://fhir.healthcare.com/terminology",
                          "code": "20230482",
                          "display": "Optical diagnosis"
                        },
                        {
                          "system": "http://snomed.info/sct",
                          "code": "20230482",
                          "display": "Optical diagnosis"
                        }
                      ]
                    }
                  },
                  {
                    "url": "child",
                    "valueCodeableConcept": {
                      "coding": [
                        {
                          "system": "http://fhir.healthcare.com/terminology",
                          "code": "20230480",
                          "display": "Performed"
                        },
                        {
                          "system": "http://snomed.info/sct",
                          "code": "20230480",
                          "display": "Performed"
                        }
                      ]
                    }
                  },
                  {
                    "url": "child",
                    "valueCodeableConcept": {
                      "coding": [
                        {
                          "system": "http://fhir.healthcare.com/terminology",
                          "code": "20230028",
                          "display": "Kudo classification"
                        },
                        {
                          "system": "http://snomed.info/sct",
                          "code": "20230028",
                          "display": "Kudo classification"
                        }
                      ]
                    }
                  },
                  {
                    "url": "child",
                    "valueCodeableConcept": {
                      "coding": [
                        {
                          "system": "http://fhir.healthcare.com/terminology",
                          "code": "20230494",
                          "display": "Round, regular (Kudo l)"
                        },
                        {
                          "system": "http://snomed.info/sct",
                          "code": "20230494",
                          "display": "Round, regular (Kudo l)"
                        }
                      ]
                    }
                  }
                ],
                "url": "http://fhir.healthcare.com/StructureDefinition/observationNovaFinding"
              },
              {
                "extension": [
                  {
                    "url": "code",
                    "valueCodeableConcept": {
                      "coding": [
                        {
                          "system": "http://fhir.healthcare.com/terminology",
                          "code": "20230482",
                          "display": "Optical diagnosis"
                        },
                        {
                          "system": "http://snomed.info/sct",
                          "code": "20230482",
                          "display": "Optical diagnosis"
                        }
                      ]
                    }
                  },
                  {
                    "url": "child",
                    "valueCodeableConcept": {
                      "coding": [
                        {
                          "system": "http://fhir.healthcare.com/terminology",
                          "code": "20230480",
                          "display": "Performed"
                        },
                        {
                          "system": "http://snomed.info/sct",
                          "code": "20230480",
                          "display": "Performed"
                        }
                      ]
                    }
                  },
                  {
                    "url": "child",
                    "valueCodeableConcept": {
                      "coding": [
                        {
                          "system": "http://fhir.healthcare.com/terminology",
                          "code": "20230145",
                          "display": "JNET classification"
                        },
                        {
                          "system": "http://snomed.info/sct",
                          "code": "20230145",
                          "display": "JNET classification"
                        }
                      ]
                    }
                  },
                  {
                    "url": "child",
                    "valueCodeableConcept": {
                      "coding": [
                        {
                          "system": "http://fhir.healthcare.com/terminology",
                          "code": "20230745",
                          "display": "JNET Type 2A"
                        },
                        {
                          "system": "http://snomed.info/sct",
                          "code": "20230745",
                          "display": "JNET Type 2A"
                        }
                      ]
                    }
                  }
                ],
                "url": "http://fhir.healthcare.com/StructureDefinition/observationNovaFinding"
              },
              {
                "extension": [
                  {
                    "url": "code",
                    "valueCodeableConcept": {
                      "coding": [
                        {
                          "system": "http://fhir.healthcare.com/terminology",
                          "code": "20230482",
                          "display": "Optical diagnosis"
                        },
                        {
                          "system": "http://snomed.info/sct",
                          "code": "20230482",
                          "display": "Optical diagnosis"
                        }
                      ]
                    }
                  },
                  {
                    "url": "child",
                    "valueCodeableConcept": {
                      "coding": [
                        {
                          "system": "http://fhir.healthcare.com/terminology",
                          "code": "20230480",
                          "display": "Performed"
                        },
                        {
                          "system": "http://snomed.info/sct",
                          "code": "20230480",
                          "display": "Performed"
                        }
                      ]
                    }
                  },
                  {
                    "url": "child",
                    "valueCodeableConcept": {
                      "coding": [
                        {
                          "system": "http://fhir.healthcare.com/terminology",
                          "code": "20230029",
                          "display": "Features of suggestive invasion"
                        },
                        {
                          "system": "http://snomed.info/sct",
                          "code": "20230029",
                          "display": "Features of suggestive invasion"
                        }
                      ]
                    }
                  },
                  {
                    "url": "child",
                    "valueCodeableConcept": {
                      "coding": [
                        {
                          "system": "http://fhir.healthcare.com/terminology",
                          "code": "20230271",
                          "display": "Converging Folds"
                        },
                        {
                          "system": "http://snomed.info/sct",
                          "code": "20230271",
                          "display": "Converging Folds"
                        }
                      ]
                    }
                  }
                ],
                "url": "http://fhir.healthcare.com/StructureDefinition/observationNovaFinding"
              },
              {
                "extension": [
                  {
                    "url": "code",
                    "valueCodeableConcept": {
                      "coding": [
                        {
                          "system": "http://fhir.healthcare.com/terminology",
                          "code": "20230482",
                          "display": "Optical diagnosis"
                        },
                        {
                          "system": "http://snomed.info/sct",
                          "code": "20230482",
                          "display": "Optical diagnosis"
                        }
                      ]
                    }
                  },
                  {
                    "url": "child",
                    "valueCodeableConcept": {
                      "coding": [
                        {
                          "system": "http://fhir.healthcare.com/terminology",
                          "code": "20230480",
                          "display": "Performed"
                        },
                        {
                          "system": "http://snomed.info/sct",
                          "code": "20230480",
                          "display": "Performed"
                        }
                      ]
                    }
                  },
                  {
                    "url": "child",
                    "valueCodeableConcept": {
                      "coding": [
                        {
                          "system": "http://fhir.healthcare.com/terminology",
                          "code": "20230030",
                          "display": "Chromoendoscopy"
                        },
                        {
                          "system": "http://snomed.info/sct",
                          "code": "20230030",
                          "display": "Chromoendoscopy"
                        }
                      ]
                    }
                  },
                  {
                    "url": "child",
                    "valueCodeableConcept": {
                      "coding": [
                        {
                          "system": "http://fhir.healthcare.com/terminology",
                          "code": "20230274",
                          "display": "Methylene blue"
                        },
                        {
                          "system": "http://snomed.info/sct",
                          "code": "20230274",
                          "display": "Methylene blue"
                        }
                      ]
                    }
                  }
                ],
                "url": "http://fhir.healthcare.com/StructureDefinition/observationNovaFinding"
              },
              {
                "extension": [
                  {
                    "url": "code",
                    "valueCodeableConcept": {
                      "coding": [
                        {
                          "system": "http://fhir.healthcare.com/terminology",
                          "code": "20230482",
                          "display": "Optical diagnosis"
                        },
                        {
                          "system": "http://snomed.info/sct",
                          "code": "20230482",
                          "display": "Optical diagnosis"
                        }
                      ]
                    }
                  },
                  {
                    "url": "child",
                    "valueCodeableConcept": {
                      "coding": [
                        {
                          "system": "http://fhir.healthcare.com/terminology",
                          "code": "20230480",
                          "display": "Performed"
                        },
                        {
                          "system": "http://snomed.info/sct",
                          "code": "20230480",
                          "display": "Performed"
                        }
                      ]
                    }
                  },
                  {
                    "url": "child",
                    "valueCodeableConcept": {
                      "coding": [
                        {
                          "system": "http://fhir.healthcare.com/terminology",
                          "code": "20230155",
                          "display": "Confidence level"
                        },
                        {
                          "system": "http://snomed.info/sct",
                          "code": "20230155",
                          "display": "Confidence level"
                        }
                      ]
                    }
                  },
                  {
                    "url": "child",
                    "valueCodeableConcept": {
                      "coding": [
                        {
                          "system": "http://fhir.healthcare.com/terminology",
                          "code": "20230277",
                          "display": "High"
                        },
                        {
                          "system": "http://snomed.info/sct",
                          "code": "20230277",
                          "display": "High"
                        }
                      ]
                    }
                  }
                ],
                "url": "http://fhir.healthcare.com/StructureDefinition/observationNovaFinding"
              },
              {
                "extension": [
                  {
                    "url": "code",
                    "valueCodeableConcept": {
                      "coding": [
                        {
                          "system": "http://fhir.healthcare.com/terminology",
                          "code": "20230483",
                          "display": "Polypectomy"
                        },
                        {
                          "system": "http://snomed.info/sct",
                          "code": "20230483",
                          "display": "Polypectomy"
                        }
                      ]
                    }
                  },
                  {
                    "url": "child",
                    "valueCodeableConcept": {
                      "coding": [
                        {
                          "system": "http://fhir.healthcare.com/terminology",
                          "code": "20230480",
                          "display": "Performed"
                        },
                        {
                          "system": "http://snomed.info/sct",
                          "code": "20230480",
                          "display": "Performed"
                        }
                      ]
                    }
                  }
                ],
                "url": "http://fhir.healthcare.com/StructureDefinition/observationNovaFinding"
              },
              {
                "extension": [
                  {
                    "url": "code",
                    "valueCodeableConcept": {
                      "coding": [
                        {
                          "system": "http://fhir.healthcare.com/terminology",
                          "code": "20230483",
                          "display": "Polypectomy"
                        },
                        {
                          "system": "http://snomed.info/sct",
                          "code": "20230483",
                          "display": "Polypectomy"
                        }
                      ]
                    }
                  },
                  {
                    "url": "child",
                    "valueCodeableConcept": {
                      "coding": [
                        {
                          "system": "http://fhir.healthcare.com/terminology",
                          "code": "20230480",
                          "display": "Performed"
                        },
                        {
                          "system": "http://snomed.info/sct",
                          "code": "20230480",
                          "display": "Performed"
                        }
                      ]
                    }
                  },
                  {
                    "url": "child",
                    "valueCodeableConcept": {
                      "coding": [
                        {
                          "system": "http://fhir.healthcare.com/terminology",
                          "code": "20230337",
                          "display": "Type"
                        },
                        {
                          "system": "http://snomed.info/sct",
                          "code": "20230337",
                          "display": "Type"
                        }
                      ]
                    }
                  },
                  {
                    "url": "child",
                    "valueCodeableConcept": {
                      "coding": [
                        {
                          "system": "http://fhir.healthcare.com/terminology",
                          "code": "20230292",
                          "display": "Hot snare"
                        },
                        {
                          "system": "http://snomed.info/sct",
                          "code": "20230292",
                          "display": "Hot snare"
                        }
                      ]
                    }
                  }
                ],
                "url": "http://fhir.healthcare.com/StructureDefinition/observationNovaFinding"
              },
              {
                "extension": [
                  {
                    "url": "code",
                    "valueCodeableConcept": {
                      "coding": [
                        {
                          "system": "http://fhir.healthcare.com/terminology",
                          "code": "20230483",
                          "display": "Polypectomy"
                        },
                        {
                          "system": "http://snomed.info/sct",
                          "code": "20230483",
                          "display": "Polypectomy"
                        }
                      ]
                    }
                  },
                  {
                    "url": "child",
                    "valueCodeableConcept": {
                      "coding": [
                        {
                          "system": "http://fhir.healthcare.com/terminology",
                          "code": "20230480",
                          "display": "Performed"
                        },
                        {
                          "system": "http://snomed.info/sct",
                          "code": "20230480",
                          "display": "Performed"
                        }
                      ]
                    }
                  },
                  {
                    "url": "child",
                    "valueCodeableConcept": {
                      "coding": [
                        {
                          "system": "http://fhir.healthcare.com/terminology",
                          "code": "20230506",
                          "display": "Injection solution"
                        },
                        {
                          "system": "http://snomed.info/sct",
                          "code": "20230506",
                          "display": "Injection solution"
                        }
                      ]
                    }
                  },
                  {
                    "url": "child",
                    "valueCodeableConcept": {
                      "coding": [
                        {
                          "system": "http://fhir.healthcare.com/terminology",
                          "code": "20230146",
                          "display": "Gelafundin"
                        },
                        {
                          "system": "http://snomed.info/sct",
                          "code": "20230146",
                          "display": "Gelafundin"
                        }
                      ]
                    }
                  }
                ],
                "url": "http://fhir.healthcare.com/StructureDefinition/observationNovaFinding"
              },
              {
                "extension": [
                  {
                    "url": "code",
                    "valueCodeableConcept": {
                      "coding": [
                        {
                          "system": "http://fhir.healthcare.com/terminology",
                          "code": "20230483",
                          "display": "Polypectomy"
                        },
                        {
                          "system": "http://snomed.info/sct",
                          "code": "20230483",
                          "display": "Polypectomy"
                        }
                      ]
                    }
                  },
                  {
                    "url": "child",
                    "valueCodeableConcept": {
                      "coding": [
                        {
                          "system": "http://fhir.healthcare.com/terminology",
                          "code": "20230480",
                          "display": "Performed"
                        },
                        {
                          "system": "http://snomed.info/sct",
                          "code": "20230480",
                          "display": "Performed"
                        }
                      ]
                    }
                  },
                  {
                    "url": "child",
                    "valueCodeableConcept": {
                      "coding": [
                        {
                          "system": "http://fhir.healthcare.com/terminology",
                          "code": "20230508",
                          "display": "Number of fragments"
                        },
                        {
                          "system": "http://snomed.info/sct",
                          "code": "20230508",
                          "display": "Number of fragments"
                        }
                      ]
                    }
                  },
                  {
                    "url": "child",
                    "valueCodeableConcept": {
                      "coding": [
                        {
                          "system": "http://fhir.healthcare.com/terminology",
                          "code": "20230166",
                          "display": "3"
                        },
                        {
                          "system": "http://snomed.info/sct",
                          "code": "20230166",
                          "display": "3"
                        }
                      ]
                    }
                  }
                ],
                "url": "http://fhir.healthcare.com/StructureDefinition/observationNovaFinding"
              },
              {
                "extension": [
                  {
                    "url": "code",
                    "valueCodeableConcept": {
                      "coding": [
                        {
                          "system": "http://fhir.healthcare.com/terminology",
                          "code": "20230483",
                          "display": "Polypectomy"
                        },
                        {
                          "system": "http://snomed.info/sct",
                          "code": "20230483",
                          "display": "Polypectomy"
                        }
                      ]
                    }
                  },
                  {
                    "url": "child",
                    "valueCodeableConcept": {
                      "coding": [
                        {
                          "system": "http://fhir.healthcare.com/terminology",
                          "code": "20230480",
                          "display": "Performed"
                        },
                        {
                          "system": "http://snomed.info/sct",
                          "code": "20230480",
                          "display": "Performed"
                        }
                      ]
                    }
                  },
                  {
                    "url": "child",
                    "valueCodeableConcept": {
                      "coding": [
                        {
                          "system": "http://fhir.healthcare.com/terminology",
                          "code": "20230509",
                          "display": "Retrieval"
                        },
                        {
                          "system": "http://snomed.info/sct",
                          "code": "20230509",
                          "display": "Retrieval"
                        }
                      ]
                    }
                  },
                  {
                    "url": "child",
                    "valueCodeableConcept": {
                      "coding": [
                        {
                          "system": "http://fhir.healthcare.com/terminology",
                          "code": "20230503",
                          "display": "Partially retrieved"
                        },
                        {
                          "system": "http://snomed.info/sct",
                          "code": "20230503",
                          "display": "Partially retrieved"
                        }
                      ]
                    }
                  }
                ],
                "url": "http://fhir.healthcare.com/StructureDefinition/observationNovaFinding"
              },
              {
                "extension": [
                  {
                    "url": "code",
                    "valueCodeableConcept": {
                      "coding": [
                        {
                          "system": "http://fhir.healthcare.com/terminology",
                          "code": "20230483",
                          "display": "Polypectomy"
                        },
                        {
                          "system": "http://snomed.info/sct",
                          "code": "20230483",
                          "display": "Polypectomy"
                        }
                      ]
                    }
                  },
                  {
                    "url": "child",
                    "valueCodeableConcept": {
                      "coding": [
                        {
                          "system": "http://fhir.healthcare.com/terminology",
                          "code": "20230480",
                          "display": "Performed"
                        },
                        {
                          "system": "http://snomed.info/sct",
                          "code": "20230480",
                          "display": "Performed"
                        }
                      ]
                    }
                  },
                  {
                    "url": "child",
                    "valueCodeableConcept": {
                      "coding": [
                        {
                          "system": "http://fhir.healthcare.com/terminology",
                          "code": "20230155",
                          "display": "Confidence level"
                        },
                        {
                          "system": "http://snomed.info/sct",
                          "code": "20230155",
                          "display": "Confidence level"
                        }
                      ]
                    }
                  },
                  {
                    "url": "child",
                    "valueCodeableConcept": {
                      "coding": [
                        {
                          "system": "http://fhir.healthcare.com/terminology",
                          "code": "20230276",
                          "display": "Low"
                        },
                        {
                          "system": "http://snomed.info/sct",
                          "code": "20230276",
                          "display": "Low"
                        }
                      ]
                    }
                  }
                ],
                "url": "http://fhir.healthcare.com/StructureDefinition/observationNovaFinding"
              },
              {
                "extension": [
                  {
                    "url": "code",
                    "valueCodeableConcept": {
                      "coding": [
                        {
                          "system": "http://fhir.healthcare.com/terminology",
                          "code": "20230483",
                          "display": "Polypectomy"
                        },
                        {
                          "system": "http://snomed.info/sct",
                          "code": "20230483",
                          "display": "Polypectomy"
                        }
                      ]
                    }
                  },
                  {
                    "url": "child",
                    "valueCodeableConcept": {
                      "coding": [
                        {
                          "system": "http://fhir.healthcare.com/terminology",
                          "code": "20230480",
                          "display": "Performed"
                        },
                        {
                          "system": "http://snomed.info/sct",
                          "code": "20230480",
                          "display": "Performed"
                        }
                      ]
                    }
                  },
                  {
                    "url": "child",
                    "valueCodeableConcept": {
                      "coding": [
                        {
                          "system": "http://fhir.healthcare.com/terminology",
                          "code": "20230535",
                          "display": "Polypectomy container"
                        },
                        {
                          "system": "http://snomed.info/sct",
                          "code": "20230535",
                          "display": "Polypectomy container"
                        }
                      ]
                    }
                  },
                  {
                    "url": "child",
                    "valueCodeableConcept": {
                      "coding": [
                        {
                          "system": "http://fhir.healthcare.com/terminology",
                          "code": "20230064",
                          "display": "Container 3"
                        },
                        {
                          "system": "http://snomed.info/sct",
                          "code": "20230064",
                          "display": "Container 3"
                        }
                      ]
                    }
                  }
                ],
                "url": "http://fhir.healthcare.com/StructureDefinition/observationNovaFinding"
              },
              {
                "extension": [
                  {
                    "url": "code",
                    "valueCodeableConcept": {
                      "coding": [
                        {
                          "system": "http://fhir.healthcare.com/terminology",
                          "code": "20230483",
                          "display": "Polypectomy"
                        },
                        {
                          "system": "http://snomed.info/sct",
                          "code": "20230483",
                          "display": "Polypectomy"
                        }
                      ]
                    }
                  },
                  {
                    "url": "child",
                    "valueCodeableConcept": {
                      "coding": [
                        {
                          "system": "http://fhir.healthcare.com/terminology",
                          "code": "20230480",
                          "display": "Performed"
                        },
                        {
                          "system": "http://snomed.info/sct",
                          "code": "20230480",
                          "display": "Performed"
                        }
                      ]
                    }
                  },
                  {
                    "url": "child",
                    "valueCodeableConcept": {
                      "coding": [
                        {
                          "system": "http://fhir.healthcare.com/terminology",
                          "code": "20230190",
                          "display": "Complications"
                        },
                        {
                          "system": "http://snomed.info/sct",
                          "code": "20230190",
                          "display": "Complications"
                        }
                      ]
                    }
                  },
                  {
                    "url": "child",
                    "valueCodeableConcept": {
                      "coding": [
                        {
                          "system": "http://fhir.healthcare.com/terminology",
                          "code": "20230058",
                          "display": "Equipment Failure"
                        },
                        {
                          "system": "http://snomed.info/sct",
                          "code": "20230058",
                          "display": "Equipment Failure"
                        }
                      ]
                    }
                  }
                ],
                "url": "http://fhir.healthcare.com/StructureDefinition/observationNovaFinding"
              },
              {
                "extension": [
                  {
                    "url": "code",
                    "valueCodeableConcept": {
                      "coding": [
                        {
                          "system": "http://fhir.healthcare.com/terminology",
                          "code": "20230483",
                          "display": "Polypectomy"
                        },
                        {
                          "system": "http://snomed.info/sct",
                          "code": "20230483",
                          "display": "Polypectomy"
                        }
                      ]
                    }
                  },
                  {
                    "url": "child",
                    "valueCodeableConcept": {
                      "coding": [
                        {
                          "system": "http://fhir.healthcare.com/terminology",
                          "code": "20230480",
                          "display": "Performed"
                        },
                        {
                          "system": "http://snomed.info/sct",
                          "code": "20230480",
                          "display": "Performed"
                        }
                      ]
                    }
                  },
                  {
                    "url": "child",
                    "valueCodeableConcept": {
                      "coding": [
                        {
                          "system": "http://fhir.healthcare.com/terminology",
                          "code": "20230781",
                          "display": "Complication treatment"
                        },
                        {
                          "system": "http://snomed.info/sct",
                          "code": "20230781",
                          "display": "Complication treatment"
                        }
                      ]
                    }
                  },
                  {
                    "url": "child",
                    "valueCodeableConcept": {
                      "coding": [
                        {
                          "system": "http://fhir.healthcare.com/terminology",
                          "code": "20230786",
                          "display": "Colon Prosthesis (placement)"
                        },
                        {
                          "system": "http://snomed.info/sct",
                          "code": "20230786",
                          "display": "Colon Prosthesis (placement)"
                        }
                      ]
                    }
                  }
                ],
                "url": "http://fhir.healthcare.com/StructureDefinition/observationNovaFinding"
              },
              {
                "extension": [
                  {
                    "url": "code",
                    "valueCodeableConcept": {
                      "coding": [
                        {
                          "system": "http://fhir.healthcare.com/terminology",
                          "code": "20230481",
                          "display": "Tattoo"
                        },
                        {
                          "system": "http://snomed.info/sct",
                          "code": "20230481",
                          "display": "Tattoo"
                        }
                      ]
                    }
                  },
                  {
                    "url": "child",
                    "valueCodeableConcept": {
                      "coding": [
                        {
                          "system": "http://fhir.healthcare.com/terminology",
                          "code": "20230487",
                          "display": "Not created"
                        },
                        {
                          "system": "http://snomed.info/sct",
                          "code": "20230487",
                          "display": "Not created"
                        }
                      ]
                    }
                  }
                ],
                "url": "http://fhir.healthcare.com/StructureDefinition/observationNovaFinding"
              },
              {
                "extension": [
                  {
                    "url": "code",
                    "valueCodeableConcept": {
                      "coding": [
                        {
                          "system": "http://fhir.healthcare.com/terminology",
                          "code": "20230477",
                          "display": "Biopsy container"
                        },
                        {
                          "system": "http://snomed.info/sct",
                          "code": "20230477",
                          "display": "Biopsy container"
                        }
                      ]
                    }
                  },
                  {
                    "url": "child",
                    "valueCodeableConcept": {
                      "coding": [
                        {
                          "system": "http://fhir.healthcare.com/terminology",
                          "code": "20230064",
                          "display": "Container 3"
                        },
                        {
                          "system": "http://snomed.info/sct",
                          "code": "20230064",
                          "display": "Container 3"
                        }
                      ]
                    }
                  }
                ],
                "url": "http://fhir.healthcare.com/StructureDefinition/observationNovaFinding"
              }
            ],
            "code": {
              "coding": [
                {
                  "system": "http://fhir.healthcare.com/terminology",
                  "code": "20230012",
                  "display": "Pathology"
                },
                {
                  "system": "http://fhir.healthcare.com/terminology",
                  "code": "20230012",
                  "display": "Pathology"
                }
              ],
              "text": "Pathology"
            }
          },
          {
            "extension": [
              {
                "extension": [
                  {
                    "url": "code",
                    "valueCodeableConcept": {
                      "coding": [
                        {
                          "system": "http://fhir.healthcare.com/terminology",
                          "code": "20230484",
                          "display": "Polyp"
                        },
                        {
                          "system": "http://snomed.info/sct",
                          "code": "20230484",
                          "display": "Polyp"
                        }
                      ]
                    }
                  },
                  {
                    "url": "occurrence",
                    "valueUnsignedInt": 4
                  },
                  {
                    "url": "position",
                    "valueUnsignedInt": 4
                  },
                  {
                    "url": "text",
                    "valueString": "Polyp, Sigmoid, 55 mm, LST-NG Flat elevated (IIa), Tattoo created"
                  }
                ],
                "url": "http://fhir.healthcare.com/StructureDefinition/observationNovaFinding"
              },
              {
                "extension": [
                  {
                    "url": "code",
                    "valueCodeableConcept": {
                      "coding": [
                        {
                          "system": "http://fhir.healthcare.com/terminology",
                          "code": "20230323",
                          "display": "Location"
                        },
                        {
                          "system": "http://snomed.info/sct",
                          "code": "20230323",
                          "display": "Location"
                        }
                      ]
                    }
                  },
                  {
                    "url": "child",
                    "valueCodeableConcept": {
                      "coding": [
                        {
                          "system": "http://fhir.healthcare.com/terminology",
                          "code": "20230223",
                          "display": "Sigmoid"
                        },
                        {
                          "system": "http://snomed.info/sct",
                          "code": "20230223",
                          "display": "Sigmoid"
                        }
                      ]
                    }
                  }
                ],
                "url": "http://fhir.healthcare.com/StructureDefinition/observationNovaFinding"
              },
              {
                "extension": [
                  {
                    "url": "code",
                    "valueCodeableConcept": {
                      "coding": [
                        {
                          "system": "http://fhir.healthcare.com/terminology",
                          "code": "20230326",
                          "display": "Size"
                        },
                        {
                          "system": "http://snomed.info/sct",
                          "code": "20230326",
                          "display": "Size"
                        }
                      ]
                    }
                  },
                  {
                    "url": "child",
                    "valueCodeableConcept": {
                      "coding": [
                        {
                          "system": "http://fhir.healthcare.com/terminology",
                          "code": "20230557",
                          "display": "55 mm"
                        },
                        {
                          "system": "http://snomed.info/sct",
                          "code": "20230557",
                          "display": "55 mm"
                        }
                      ]
                    }
                  }
                ],
                "url": "http://fhir.healthcare.com/StructureDefinition/observationNovaFinding"
              },
              {
                "extension": [
                  {
                    "url": "code",
                    "valueCodeableConcept": {
                      "coding": [
                        {
                          "system": "http://fhir.healthcare.com/terminology",
                          "code": "20230027",
                          "display": "Paris classification"
                        },
                        {
                          "system": "http://snomed.info/sct",
                          "code": "20230027",
                          "display": "Paris classification"
                        }
                      ]
                    }
                  },
                  {
                    "url": "child",
                    "valueCodeableConcept": {
                      "coding": [
                        {
                          "system": "http://fhir.healthcare.com/terminology",
                          "code": "20230052",
                          "display": "LST-NG Flat elevated (IIa)"
                        },
                        {
                          "system": "http://snomed.info/sct",
                          "code": "20230052",
                          "display": "LST-NG Flat elevated (IIa)"
                        }
                      ]
                    }
                  }
                ],
                "url": "http://fhir.healthcare.com/StructureDefinition/observationNovaFinding"
              },
              {
                "extension": [
                  {
                    "url": "code",
                    "valueCodeableConcept": {
                      "coding": [
                        {
                          "system": "http://fhir.healthcare.com/terminology",
                          "code": "20230481",
                          "display": "Tattoo"
                        },
                        {
                          "system": "http://snomed.info/sct",
                          "code": "20230481",
                          "display": "Tattoo"
                        }
                      ]
                    }
                  },
                  {
                    "url": "child",
                    "valueCodeableConcept": {
                      "coding": [
                        {
                          "system": "http://fhir.healthcare.com/terminology",
                          "code": "20230378",
                          "display": "Tattoo created"
                        },
                        {
                          "system": "http://snomed.info/sct",
                          "code": "20230378",
                          "display": "Tattoo created"
                        }
                      ]
                    }
                  }
                ],
                "url": "http://fhir.healthcare.com/StructureDefinition/observationNovaFinding"
              },
              {
                "extension": [
                  {
                    "url": "code",
                    "valueCodeableConcept": {
                      "coding": [
                        {
                          "system": "http://fhir.healthcare.com/terminology",
                          "code": "20230477",
                          "display": "Biopsy container"
                        },
                        {
                          "system": "http://snomed.info/sct",
                          "code": "20230477",
                          "display": "Biopsy container"
                        }
                      ]
                    }
                  },
                  {
                    "url": "child",
                    "valueCodeableConcept": {
                      "coding": [
                        {
                          "system": "http://fhir.healthcare.com/terminology",
                          "code": "20230064",
                          "display": "Container 3"
                        },
                        {
                          "system": "http://snomed.info/sct",
                          "code": "20230064",
                          "display": "Container 3"
                        }
                      ]
                    }
                  }
                ],
                "url": "http://fhir.healthcare.com/StructureDefinition/observationNovaFinding"
              }
            ],
            "code": {
              "coding": [
                {
                  "system": "http://fhir.healthcare.com/terminology",
                  "code": "20230012",
                  "display": "Pathology"
                },
                {
                  "system": "http://fhir.healthcare.com/terminology",
                  "code": "20230012",
                  "display": "Pathology"
                }
              ],
              "text": "Pathology"
            }
          }
        ]
      },
      "request": {
        "method": "POST",
        "url": "Observation"
      }
    },
    {
      "fullUrl": "urn:uuid:19b4a8b1-78c7-451a-9098-405c9d940760",
      "resource": {
        "resourceType": "Media",
        "id": "19b4a8b1-78c7-451a-9098-405c9d940760",
        "meta": {
          "versionId": "1",
          "lastUpdated": "2023-09-11T20:07:28.046+00:00"
        },
        "extension": [
          {
            "extension": [
              {
                "url": "tag"
              },
              {
                "url": "order",
                "valueInteger": 0
              },
              {
                "url": "selected",
                "valueBoolean": false
              },
              {
                "url": "inPdf",
                "valueBoolean": false
              },
              {
                "url": "component",
                "valueCodeableConcept": {
                  "coding": [
                    {
                      "system": "http://fhir.healthcare.com/terminology"
                    },
                    {
                      "system": "http://snomed.info/sct"
                    }
                  ]
                }
              },
              {
                "url": "componentOccurrence"
              }
            ],
            "url": "http://fhir.healthcare.com/StructureDefinition/mediaReportMetaData"
          }
        ],
        "identifier": [
          {
            "system": "urn:dicom:uid",
            "value": "urn:oid:1.2.840.10008.5.1.4.1"
          }
        ],
        "basedOn": [
          {
            "reference": "urn:uuid:e1f552e5-ae82-4956-bb7f-ce504e3b7eef"
          }
        ],
        "status": "in-progress",
        "type": {
          "coding": [
            {
              "system": "http://loinc.org",
              "code": "image",
              "display": "Image"
            }
          ]
        },
        "subject": {
          "reference": "urn:uuid:ff6029f8-71de-489f-804d-494a7ac66d50"
        },
        "content": {
          "url": "https://apim.azure-api.net/dicom/studies/1.2.392.200059.10.5.107010816.2.999620807/series/1.2.2023.9.11.6.34.2.189.1744395908/instances/1.2.2023.9.11.6.34.2.189.1475050468"
        }
      },
      "request": {
        "method": "POST",
        "url": "Media"
      }
    },
    {
      "fullUrl": "urn:uuid:3eaff21b-204c-46e1-b803-4fa82d9757a6",
      "resource": {
        "resourceType": "Media",
        "id": "3eaff21b-204c-46e1-b803-4fa82d9757a6",
        "meta": {
          "versionId": "1",
          "lastUpdated": "2023-09-11T20:07:28.389+00:00"
        },
        "extension": [
          {
            "extension": [
              {
                "url": "tag",
                "valueString": "P1"
              },
              {
                "url": "order",
                "valueInteger": 1
              },
              {
                "url": "selected",
                "valueBoolean": true
              },
              {
                "url": "inPdf",
                "valueBoolean": true
              },
              {
                "url": "component",
                "valueCodeableConcept": {
                  "coding": [
                    {
                      "system": "http://fhir.healthcare.com/terminology",
                      "code": "20230484",
                      "display": "Polyp"
                    },
                    {
                      "system": "http://snomed.info/sct",
                      "code": "20230484",
                      "display": "Polyp"
                    }
                  ]
                }
              },
              {
                "url": "componentOccurrence",
                "valueInteger": 1
              }
            ],
            "url": "http://fhir.healthcare.com/StructureDefinition/mediaReportMetaData"
          }
        ],
        "identifier": [
          {
            "system": "urn:dicom:uid",
            "value": "urn:oid:1.2.840.10008.5.1.4.1"
          }
        ],
        "basedOn": [
          {
            "reference": "urn:uuid:e1f552e5-ae82-4956-bb7f-ce504e3b7eef"
          }
        ],
        "status": "in-progress",
        "type": {
          "coding": [
            {
              "system": "http://loinc.org",
              "code": "image",
              "display": "Image"
            }
          ]
        },
        "subject": {
          "reference": "urn:uuid:ff6029f8-71de-489f-804d-494a7ac66d50"
        },
        "content": {
          "url": "https://apim.azure-api.net/dicom/studies/1.2.392.200059.10.5.107010816.2.999620807/series/1.2.2023.9.11.6.34.2.189.1744395908/instances/1.2.2023.9.11.6.34.7.421.1519892554"
        }
      },
      "request": {
        "method": "POST",
        "url": "Media"
      }
    },
    {
      "fullUrl": "urn:uuid:3392cde0-69a5-4382-ae03-cbe74c567209",
      "resource": {
        "resourceType": "Media",
        "id": "3392cde0-69a5-4382-ae03-cbe74c567209",
        "meta": {
          "versionId": "1",
          "lastUpdated": "2023-09-11T20:07:28.686+00:00"
        },
        "extension": [
          {
            "extension": [
              {
                "url": "tag"
              },
              {
                "url": "order",
                "valueInteger": 0
              },
              {
                "url": "selected",
                "valueBoolean": false
              },
              {
                "url": "inPdf",
                "valueBoolean": false
              },
              {
                "url": "component",
                "valueCodeableConcept": {
                  "coding": [
                    {
                      "system": "http://fhir.healthcare.com/terminology"
                    },
                    {
                      "system": "http://snomed.info/sct"
                    }
                  ]
                }
              },
              {
                "url": "componentOccurrence"
              }
            ],
            "url": "http://fhir.healthcare.com/StructureDefinition/mediaReportMetaData"
          }
        ],
        "identifier": [
          {
            "system": "urn:dicom:uid",
            "value": "urn:oid:1.2.840.10008.5.1.4.2"
          }
        ],
        "basedOn": [
          {
            "reference": "urn:uuid:e1f552e5-ae82-4956-bb7f-ce504e3b7eef"
          }
        ],
        "status": "in-progress",
        "type": {
          "coding": [
            {
              "system": "http://loinc.org",
              "code": "image",
              "display": "Image"
            }
          ]
        },
        "subject": {
          "reference": "urn:uuid:ff6029f8-71de-489f-804d-494a7ac66d50"
        },
        "content": {
          "url": "https://apim.azure-api.net/dicom/studies/1.2.392.200059.10.5.107010816.2.999620807/series/1.2.2023.9.11.6.34.2.189.1744395908/instances/1.2.2023.9.11.6.34.10.981.1554420806"
        }
      },
      "request": {
        "method": "POST",
        "url": "Media"
      }
    },
    {
      "fullUrl": "urn:uuid:250d4cd5-67a8-4ee9-a7de-0ae30de0b196",
      "resource": {
        "resourceType": "Media",
        "id": "250d4cd5-67a8-4ee9-a7de-0ae30de0b196",
        "meta": {
          "versionId": "1",
          "lastUpdated": "2023-09-11T20:07:29.077+00:00"
        },
        "extension": [
          {
            "extension": [
              {
                "url": "tag"
              },
              {
                "url": "order",
                "valueInteger": 0
              },
              {
                "url": "selected",
                "valueBoolean": false
              },
              {
                "url": "inPdf",
                "valueBoolean": false
              },
              {
                "url": "component",
                "valueCodeableConcept": {
                  "coding": [
                    {
                      "system": "http://fhir.healthcare.com/terminology"
                    },
                    {
                      "system": "http://snomed.info/sct"
                    }
                  ]
                }
              },
              {
                "url": "componentOccurrence"
              }
            ],
            "url": "http://fhir.healthcare.com/StructureDefinition/mediaReportMetaData"
          }
        ],
        "identifier": [
          {
            "system": "urn:dicom:uid",
            "value": "urn:oid:1.2.840.10008.5.1.4.3"
          }
        ],
        "basedOn": [
          {
            "reference": "urn:uuid:e1f552e5-ae82-4956-bb7f-ce504e3b7eef"
          }
        ],
        "status": "in-progress",
        "type": {
          "coding": [
            {
              "system": "http://loinc.org",
              "code": "image",
              "display": "Image"
            }
          ]
        },
        "subject": {
          "reference": "urn:uuid:ff6029f8-71de-489f-804d-494a7ac66d50"
        },
        "content": {
          "url": "https://apim.azure-api.net/dicom/studies/1.2.392.200059.10.5.107010816.2.999620807/series/1.2.2023.9.11.6.34.2.189.1744395908/instances/1.2.2023.9.11.13.6.26.166.2138969433"
        }
      },
      "request": {
        "method": "POST",
        "url": "Media"
      }
    },
    {
      "fullUrl": "urn:uuid:8d21b4da-efcd-478e-b52c-219286af2d48",
      "resource": {
        "resourceType": "DiagnosticReport",
        "id": "urn:uuid:8d21b4da-efcd-478e-b52c-219286af2d48",
        "basedOn": [
          {
            "reference": "urn:uuid:e1f552e5-ae82-4956-bb7f-ce504e3b7eef"
          }
        ],
        "status": "preliminary",
        "code": {
          "coding": [
            {
              "system": "http://loinc.org",
              "code": "18746-8"
            }
          ],
          "text": "Colonoscopy study"
        },
        "subject": {
          "reference": "urn:uuid:ff6029f8-71de-489f-804d-494a7ac66d50"
        },
        "performer": [
          {
            "reference": "urn:uuid:6a1a2a84-eaf1-4852-808a-b10c41d5fafd"
          },
          {
            "reference": "urn:uuid:4263fd33-1638-40bd-a3f9-d4148962bdad"
          }
        ],
        "result": [
          {
            "reference": "urn:uuid:f5deb441-75e7-4ab0-82bc-e2c10417043a"
          },
          {
            "reference": "urn:uuid:2c28f7d1-0b29-4ed9-ba6a-b0bc98c887f2"
          },
          {
            "reference": "urn:uuid:342572d5-6809-4446-aeb7-b13ef137fdea"
          },
          {
            "reference": "urn:uuid:86a6d7ca-84a7-449e-8531-691f0ece4201"
          },
          {
            "reference": "urn:uuid:32fdf464-72d6-420e-987e-01603b9b44ae"
          },
          {
            "reference": "urn:uuid:44fde6e9-8b6f-4b32-8b2e-79c5359658ca"
          },
          {
            "reference": "urn:uuid:1333163f-33b2-47cf-af0f-658b6a27c219"
          },
          {
            "reference": "urn:uuid:b55ecc38-46c7-4863-8f7c-abc2dbdff19a"
          },
          {
            "reference": "urn:uuid:ca8e87bf-070d-4b70-9a13-656cb93e31a7"
          }
        ],
        "imagingStudy": [
          {
            "reference": "urn:uuid:6db92ec9-dfd8-4bc9-b50f-ddf06a764cc7"
          }
        ],
        "media": [
          {
            "link": {
              "reference": "urn:uuid:19b4a8b1-78c7-451a-9098-405c9d940760"
            }
          },
          {
            "link": {
              "reference": "urn:uuid:3eaff21b-204c-46e1-b803-4fa82d9757a6"
            }
          },
          {
            "link": {
              "reference": "urn:uuid:3392cde0-69a5-4382-ae03-cbe74c567209"
            }
          },
          {
            "link": {
              "reference": "urn:uuid:250d4cd5-67a8-4ee9-a7de-0ae30de0b196"
            }
          }
        ],
        "presentedForm": [
          {
            "url": "https://apim.azure-api.net/storage/pdf-reports/REPORT.pdf"
          }
        ]
      },
      "request": {
        "method": "POST",
        "url": "DiagnosticReport"
      }
    }
  ]
}